sample_count, ms, RAW_Acc X1, RAW_Acc Y1, RAW_Acc Z1, RAW_Gyro X1, RAW_Gyro Y1, RAW_Gyro Z1, RAW_Acc X2, RAW_Acc Y2, RAW_Acc Z2, RAW_Gyro X2, RAW_Gyro Y2, RAW_Gyro Z2
0,0,-5696,-992,6540,-882,-1828,281,854,-1614,7778,-69,-204,-414,0,0,0,0,0,0,0,0,0,0,0,0
1,2,-5262,-796,6036,-875,-1821,283,690,-2038,8214,-71,-205,-412,0,0,0,0,0,0,0,0,0,0,0,0
2,4,-5272,-1140,6224,-866,-1818,282,806,-1990,7640,-70,-210,-416,0,0,0,0,0,0,0,0,0,0,0,0
3,6,-5694,-1176,6238,-863,-1821,284,510,-1910,7612,-62,-212,-416,0,0,0,0,0,0,0,0,0,0,0,0
4,8,-5588,-1436,6342,-859,-1815,285,862,-1792,8096,-59,-202,-408,0,0,0,0,0,0,0,0,0,0,0,0
5,10,-5396,-936,6252,-865,-1811,291,874,-1780,7938,-58,-204,-403,0,0,0,0,0,0,0,0,0,0,0,0
6,12,-5540,-1082,6448,-865,-1816,293,798,-1686,7930,-59,-210,-398,0,0,0,0,0,0,0,0,0,0,0,0
7,14,-5760,-1306,6790,-862,-1826,290,380,-1292,8406,-60,-210,-393,0,0,0,0,0,0,0,0,0,0,0,0
8,16,-5574,-1476,6516,-861,-1829,285,1124,-1994,8112,-63,-208,-396,0,0,0,0,0,0,0,0,0,0,0,0
9,18,-5654,-1296,6068,-863,-1832,276,1030,-1632,7884,-60,-211,-398,0,0,0,0,0,0,0,0,0,0,0,0
10,20,-5440,-1338,6130,-864,-1835,274,1022,-2006,7662,-67,-214,-398,0,0,0,0,0,0,0,0,0,0,0,0
11,22,-5248,-616,6708,-857,-1838,273,1014,-1626,7518,-63,-210,-395,0,0,0,0,0,0,0,0,0,0,0,0
12,24,-5246,-1320,6426,-862,-1839,273,810,-1734,8018,-56,-206,-395,0,0,0,0,0,0,0,0,0,0,0,0
13,26,-5230,-1132,6086,-870,-1839,276,228,-2032,7840,-53,-207,-399,0,0,0,0,0,0,0,0,0,0,0,0
14,29,-5678,-1268,6418,-873,-1841,274,732,-1792,8282,-50,-209,-397,0,0,0,0,0,0,0,0,0,0,0,0
15,30,-5054,-1118,6542,-871,-1848,269,904,-1804,7660,-45,-208,-405,0,0,0,0,0,0,0,0,0,0,0,0
16,32,-5690,-1174,6278,-869,-1844,266,812,-1584,8156,-40,-204,-405,0,0,0,0,0,0,0,0,0,0,0,0
17,34,-5462,-1224,6254,-870,-1838,266,898,-1934,7870,-39,-205,-403,0,0,0,0,0,0,0,0,0,0,0,0
18,36,-5494,-836,6388,-868,-1843,268,710,-1584,8136,-39,-208,-401,0,0,0,0,0,0,0,0,0,0,0,0
19,38,-5218,-1388,6556,-863,-1853,272,748,-2120,8242,-40,-210,-399,0,0,0,0,0,0,0,0,0,0,0,0
20,40,-5182,-1320,6880,-864,-1859,275,504,-1906,7708,-36,-209,-400,0,0,0,0,0,0,0,0,0,0,0,0
21,42,-5326,-870,6176,-864,-1859,281,666,-1414,8100,-40,-216,-395,0,0,0,0,0,0,0,0,0,0,0,0
22,44,-5478,-1100,6332,-859,-1857,278,832,-1918,8006,-39,-223,-392,0,0,0,0,0,0,0,0,0,0,0,0
23,46,-5356,-984,6432,-847,-1855,276,620,-2126,8078,-38,-221,-389,0,0,0,0,0,0,0,0,0,0,0,0
24,48,-5294,-1164,6432,-841,-1853,276,928,-2146,8028,-48,-216,-382,0,0,0,0,0,0,0,0,0,0,0,0
25,50,-5930,-1110,6232,-846,-1850,273,756,-2048,7798,-47,-212,-372,0,0,0,0,0,0,0,0,0,0,0,0
26,52,-5554,-1298,6604,-841,-1847,278,792,-2130,8004,-43,-213,-371,0,0,0,0,0,0,0,0,0,0,0,0
27,54,-5330,-968,6096,-843,-1850,282,686,-1582,7424,-39,-211,-369,0,0,0,0,0,0,0,0,0,0,0,0
28,56,-5516,-988,6738,-845,-1849,279,742,-1980,8034,-38,-209,-364,0,0,0,0,0,0,0,0,0,0,0,0
29,58,-5496,-1084,6086,-851,-1844,283,208,-1762,7856,-40,-211,-362,0,0,0,0,0,0,0,0,0,0,0,0
30,60,-5500,-918,5800,-851,-1837,289,488,-2054,8042,-40,-215,-361,0,0,0,0,0,0,0,0,0,0,0,0
31,62,-5472,-1336,6254,-851,-1833,282,818,-1914,7924,-32,-217,-364,0,0,0,0,0,0,0,0,0,0,0,0
32,64,-5538,-1162,6392,-847,-1838,283,874,-2212,7666,-26,-219,-371,0,0,0,0,0,0,0,0,0,0,0,0
33,66,-5594,-1174,6136,-843,-1844,285,446,-2280,7944,-25,-218,-375,0,0,0,0,0,0,0,0,0,0,0,0
34,68,-5820,-1270,6332,-850,-1843,291,1400,-1788,7772,-21,-215,-378,0,0,0,0,0,0,0,0,0,0,0,0
35,70,-5538,-1272,6214,-848,-1841,292,1312,-1878,8190,-15,-218,-382,0,0,0,0,0,0,0,0,0,0,0,0
36,72,-5400,-1270,6206,-840,-1845,297,912,-1662,8066,-16,-222,-378,0,0,0,0,0,0,0,0,0,0,0,0
37,74,-5452,-920,6422,-842,-1844,299,986,-2012,8010,-17,-215,-379,0,0,0,0,0,0,0,0,0,0,0,0
38,76,-5686,-1286,6654,-841,-1842,304,782,-1960,8026,-17,-217,-380,0,0,0,0,0,0,0,0,0,0,0,0
39,78,-5276,-1296,6186,-835,-1845,306,716,-1766,7850,-19,-224,-380,0,0,0,0,0,0,0,0,0,0,0,0
40,80,-5524,-922,6370,-841,-1851,298,510,-1600,8066,-14,-224,-379,0,0,0,0,0,0,0,0,0,0,0,0
41,82,-5280,-1130,6772,-841,-1851,299,710,-2102,7590,-9,-225,-380,0,0,0,0,0,0,0,0,0,0,0,0
42,84,-4998,-1162,6144,-838,-1849,300,810,-1842,8054,-8,-223,-383,0,0,0,0,0,0,0,0,0,0,0,0
43,86,-4998,-1162,6144,-838,-1849,300,930,-1952,7856,-8,-222,-385,0,0,0,0,0,0,0,0,0,0,0,0
44,88,-5494,-1230,6680,-837,-1842,291,704,-1742,7916,-5,-223,-378,0,0,0,0,0,0,0,0,0,0,0,0
45,90,-5420,-1116,6542,-843,-1841,288,1092,-1654,8306,2,-222,-385,0,0,0,0,0,0,0,0,0,0,0,0
46,92,-5456,-1534,6842,-843,-1835,283,990,-1754,8164,7,-217,-395,0,0,0,0,0,0,0,0,0,0,0,0
47,94,-5866,-1266,5736,-840,-1834,285,788,-1574,7862,10,-214,-401,0,0,0,0,0,0,0,0,0,0,0,0
48,96,-5752,-976,6504,-840,-1841,288,1008,-2028,8010,6,-218,-396,0,0,0,0,0,0,0,0,0,0,0,0
49,98,-5534,-802,6442,-838,-1838,283,796,-1632,7638,3,-219,-402,0,0,0,0,0,0,0,0,0,0,0,0
50,100,-5174,-1414,6570,-845,-1826,284,802,-2140,7868,4,-214,-414,0,0,0,0,0,0,0,0,0,0,0,0
51,102,-5450,-1224,6282,-847,-1817,287,870,-1838,7902,2,-214,-411,0,0,0,0,0,0,0,0,0,0,0,0
52,104,-5670,-1218,6370,-843,-1820,287,492,-1716,8114,2,-215,-410,0,0,0,0,0,0,0,0,0,0,0,0
53,106,-5588,-1326,6650,-848,-1819,284,548,-2026,7786,7,-214,-419,0,0,0,0,0,0,0,0,0,0,0,0
54,108,-5390,-1314,6174,-854,-1822,285,868,-2030,8030,13,-214,-421,0,0,0,0,0,0,0,0,0,0,0,0
55,110,-5458,-1016,6132,-855,-1819,284,894,-1558,8288,12,-214,-419,0,0,0,0,0,0,0,0,0,0,0,0
56,112,-5458,-1016,6132,-855,-1819,284,1302,-1814,7998,6,-218,-415,0,0,0,0,0,0,0,0,0,0,0,0
57,114,-5270,-1190,6042,-853,-1816,287,626,-2228,7612,13,-217,-413,0,0,0,0,0,0,0,0,0,0,0,0
58,116,-5826,-824,6410,-855,-1816,285,840,-1598,7870,19,-216,-409,0,0,0,0,0,0,0,0,0,0,0,0
59,118,-5370,-1134,6352,-857,-1821,287,606,-1668,7930,15,-217,-407,0,0,0,0,0,0,0,0,0,0,0,0
60,120,-5766,-1186,6486,-855,-1829,292,718,-2324,7742,9,-216,-405,0,0,0,0,0,0,0,0,0,0,0,0
61,122,-5712,-1526,6180,-857,-1828,290,466,-2316,7608,6,-211,-399,0,0,0,0,0,0,0,0,0,0,0,0
62,124,-5436,-1424,6154,-863,-1832,293,1038,-1460,8264,2,-211,-400,0,0,0,0,0,0,0,0,0,0,0,0
63,126,-5598,-1082,6188,-864,-1831,294,428,-1738,8052,6,-205,-397,0,0,0,0,0,0,0,0,0,0,0,0
64,128,-5532,-1224,6312,-869,-1830,289,724,-1908,8224,11,-201,-394,0,0,0,0,0,0,0,0,0,0,0,0
65,130,-5632,-994,6568,-868,-1837,289,688,-1700,8072,8,-207,-388,0,0,0,0,0,0,0,0,0,0,0,0
66,132,-5258,-826,6432,-866,-1840,290,518,-1916,8060,4,-206,-388,0,0,0,0,0,0,0,0,0,0,0,0
67,134,-5608,-974,5800,-872,-1838,288,582,-1946,7960,-4,-201,-387,0,0,0,0,0,0,0,0,0,0,0,0
68,136,-5594,-1096,6104,-877,-1843,287,538,-2018,8004,-13,-204,-382,0,0,0,0,0,0,0,0,0,0,0,0
69,138,-5358,-1014,6134,-872,-1840,283,736,-1878,7928,-25,-204,-380,0,0,0,0,0,0,0,0,0,0,0,0
70,140,-5738,-1162,6664,-866,-1838,278,490,-1902,7644,-27,-203,-377,0,0,0,0,0,0,0,0,0,0,0,0
71,142,-5454,-978,6078,-869,-1827,280,812,-2234,8132,-31,-203,-373,0,0,0,0,0,0,0,0,0,0,0,0
72,144,-5304,-894,6516,-871,-1821,285,1088,-1464,7866,-37,-205,-370,0,0,0,0,0,0,0,0,0,0,0,0
73,146,-5604,-760,6316,-868,-1826,284,646,-2000,7900,-44,-202,-364,0,0,0,0,0,0,0,0,0,0,0,0
74,148,-5360,-1058,6438,-869,-1828,280,620,-2160,8334,-46,-201,-358,0,0,0,0,0,0,0,0,0,0,0,0
75,150,-6016,-1198,5960,-867,-1825,276,1024,-1940,8058,-42,-199,-354,0,0,0,0,0,0,0,0,0,0,0,0
76,152,-5360,-1386,6142,-862,-1822,277,780,-1974,8040,-48,-203,-351,0,0,0,0,0,0,0,0,0,0,0,0
77,154,-5258,-1190,6142,-868,-1830,283,616,-2168,7692,-60,-206,-350,0,0,0,0,0,0,0,0,0,0,0,0
78,156,-5482,-1136,5844,-867,-1835,280,826,-1568,7916,-62,-207,-349,0,0,0,0,0,0,0,0,0,0,0,0
79,158,-5696,-1170,6304,-864,-1842,277,1038,-1916,7854,-63,-209,-352,0,0,0,0,0,0,0,0,0,0,0,0
80,160,-5360,-1128,6332,-861,-1850,279,800,-1592,8210,-64,-207,-357,0,0,0,0,0,0,0,0,0,0,0,0
81,162,-5366,-1248,6206,-857,-1849,285,930,-2004,7494,-60,-204,-362,0,0,0,0,0,0,0,0,0,0,0,0
82,164,-5550,-730,6196,-859,-1856,290,618,-1790,8364,-51,-204,-371,0,0,0,0,0,0,0,0,0,0,0,0
83,166,-5616,-754,6520,-869,-1865,293,826,-1762,7654,-58,-210,-370,0,0,0,0,0,0,0,0,0,0,0,0
84,168,-5080,-1200,6116,-878,-1861,298,736,-1988,8036,-70,-213,-367,0,0,0,0,0,0,0,0,0,0,0,0
85,170,-5658,-1222,6462,-876,-1865,295,768,-1404,7848,-78,-215,-370,0,0,0,0,0,0,0,0,0,0,0,0
86,172,-5168,-978,6034,-875,-1872,295,652,-1894,7882,-83,-216,-368,0,0,0,0,0,0,0,0,0,0,0,0
87,174,-5650,-928,6312,-877,-1863,292,888,-1500,7996,-89,-216,-356,0,0,0,0,0,0,0,0,0,0,0,0
88,176,-5314,-974,6540,-881,-1856,290,882,-1474,7766,-82,-214,-363,0,0,0,0,0,0,0,0,0,0,0,0
89,178,-5526,-1138,6194,-879,-1868,292,758,-1642,7956,-82,-219,-367,0,0,0,0,0,0,0,0,0,0,0,0
90,180,-5576,-1198,6132,-872,-1874,293,1220,-1858,8162,-82,-221,-369,0,0,0,0,0,0,0,0,0,0,0,0
91,182,-5576,-1198,6132,-872,-1874,293,1172,-1768,8210,-79,-218,-371,0,0,0,0,0,0,0,0,0,0,0,0
92,184,-5454,-990,6692,-882,-1870,288,774,-1460,8230,-73,-218,-376,0,0,0,0,0,0,0,0,0,0,0,0
93,186,-6128,-896,6292,-888,-1869,284,928,-1772,7880,-74,-219,-376,0,0,0,0,0,0,0,0,0,0,0,0
94,188,-5472,-380,6338,-881,-1872,278,610,-2068,7930,-73,-214,-372,0,0,0,0,0,0,0,0,0,0,0,0
95,190,-5382,-1164,6658,-878,-1868,281,864,-1586,7996,-78,-218,-376,0,0,0,0,0,0,0,0,0,0,0,0
96,192,-5568,-944,6318,-882,-1860,276,526,-2094,7670,-76,-222,-372,0,0,0,0,0,0,0,0,0,0,0,0
97,194,-5284,-954,6168,-878,-1862,284,492,-2082,7592,-73,-222,-372,0,0,0,0,0,0,0,0,0,0,0,0
98,196,-5448,-1002,6406,-871,-1856,284,1156,-2098,7902,-80,-220,-370,0,0,0,0,0,0,0,0,0,0,0,0
99,198,-5662,-1010,6340,-868,-1865,289,750,-1950,7994,-83,-221,-371,0,0,0,0,0,0,0,0,0,0,0,0
100,200,-5360,-1122,6224,-871,-1854,291,1018,-1476,7820,-80,-222,-377,0,0,0,0,0,0,0,0,0,0,0,0
101,202,-5340,-742,6450,-868,-1854,288,990,-1564,8082,-84,-225,-375,0,0,0,0,0,0,0,0,0,0,0,0
102,204,-5406,-840,6146,-867,-1855,280,852,-1666,8032,-88,-226,-377,0,0,0,0,0,0,0,0,0,0,0,0
103,206,-5378,-1236,6700,-873,-1853,269,438,-1808,7954,-90,-226,-371,0,0,0,0,0,0,0,0,0,0,0,0
104,208,-5280,-1064,6668,-877,-1842,271,1120,-1848,7888,-88,-224,-368,0,0,0,0,0,0,0,0,0,0,0,0
105,210,-5362,-1114,6498,-878,-1839,270,288,-1578,7876,-96,-234,-365,0,0,0,0,0,0,0,0,0,0,0,0
106,212,-5618,-952,6062,-878,-1836,272,426,-2026,7684,-96,-238,-367,0,0,0,0,0,0,0,0,0,0,0,0
107,214,-5622,-826,6586,-877,-1833,276,704,-1938,8120,-97,-233,-368,0,0,0,0,0,0,0,0,0,0,0,0
108,216,-5492,-1090,6628,-880,-1830,274,568,-1582,8088,-98,-240,-368,0,0,0,0,0,0,0,0,0,0,0,0
109,218,-5552,-990,6368,-881,-1821,275,658,-1882,7894,-104,-243,-364,0,0,0,0,0,0,0,0,0,0,0,0
110,220,-5194,-1100,5784,-880,-1819,281,1040,-1730,8080,-103,-240,-363,0,0,0,0,0,0,0,0,0,0,0,0
111,222,-5472,-1098,6090,-877,-1814,283,674,-1934,7856,-106,-234,-363,0,0,0,0,0,0,0,0,0,0,0,0
112,224,-5364,-1288,6744,-871,-1818,289,786,-1648,7824,-98,-232,-364,0,0,0,0,0,0,0,0,0,0,0,0
113,226,-5700,-1044,6170,-870,-1826,289,456,-2042,7784,-104,-237,-369,0,0,0,0,0,0,0,0,0,0,0,0
114,228,-5338,-1176,6182,-876,-1821,290,842,-1642,7962,-105,-233,-370,0,0,0,0,0,0,0,0,0,0,0,0
115,230,-5406,-976,6448,-879,-1819,290,584,-1668,8200,-108,-229,-368,0,0,0,0,0,0,0,0,0,0,0,0
116,232,-5528,-1282,6250,-877,-1814,291,1164,-1958,7860,-104,-227,-368,0,0,0,0,0,0,0,0,0,0,0,0
117,234,-5528,-1282,6250,-877,-1814,291,814,-1622,8182,-102,-221,-369,0,0,0,0,0,0,0,0,0,0,0,0
118,236,-5458,-1152,6274,-873,-1799,289,1222,-1756,8030,-102,-226,-367,0,0,0,0,0,0,0,0,0,0,0,0
119,238,-5742,-1066,6562,-868,-1811,291,972,-2116,7838,-99,-227,-365,0,0,0,0,0,0,0,0,0,0,0,0
120,240,-5418,-1132,6460,-879,-1819,295,1048,-2006,8098,-95,-223,-359,0,0,0,0,0,0,0,0,0,0,0,0
121,242,-5398,-1162,6680,-883,-1821,285,1034,-1958,7944,-98,-223,-348,0,0,0,0,0,0,0,0,0,0,0,0
122,244,-5486,-1250,6320,-883,-1813,286,522,-1520,7962,-93,-225,-351,0,0,0,0,0,0,0,0,0,0,0,0
123,246,-5632,-620,6548,-874,-1816,288,850,-1768,7884,-97,-229,-351,0,0,0,0,0,0,0,0,0,0,0,0
124,248,-5472,-1222,6582,-872,-1819,290,582,-1922,8078,-97,-229,-347,0,0,0,0,0,0,0,0,0,0,0,0
125,250,-5410,-1298,6152,-870,-1821,292,798,-1990,7858,-97,-227,-342,0,0,0,0,0,0,0,0,0,0,0,0
126,252,-5466,-824,6154,-873,-1826,283,750,-2030,7888,-92,-224,-349,0,0,0,0,0,0,0,0,0,0,0,0
127,254,-5444,-1134,6024,-872,-1830,284,648,-1296,7868,-85,-225,-350,0,0,0,0,0,0,0,0,0,0,0,0
128,256,-5530,-774,6356,-864,-1823,288,776,-1710,8230,-79,-226,-349,0,0,0,0,0,0,0,0,0,0,0,0
129,258,-5210,-1310,6712,-863,-1813,289,790,-1388,8016,-74,-219,-359,0,0,0,0,0,0,0,0,0,0,0,0
130,260,-5336,-1006,6568,-865,-1803,284,890,-1824,7838,-65,-223,-370,0,0,0,0,0,0,0,0,0,0,0,0
131,262,-5290,-1150,6466,-865,-1800,281,572,-1876,7990,-66,-227,-365,0,0,0,0,0,0,0,0,0,0,0,0
132,264,-5308,-1272,5952,-868,-1811,274,970,-1896,7936,-63,-226,-367,0,0,0,0,0,0,0,0,0,0,0,0
133,266,-5512,-1282,6840,-872,-1816,270,860,-1722,7854,-53,-222,-370,0,0,0,0,0,0,0,0,0,0,0,0
134,268,-5488,-1054,6760,-878,-1811,273,242,-1568,7914,-48,-220,-369,0,0,0,0,0,0,0,0,0,0,0,0
135,270,-5596,-1060,6170,-879,-1816,273,1054,-1720,7870,-40,-221,-371,0,0,0,0,0,0,0,0,0,0,0,0
136,272,-5634,-1144,6194,-878,-1817,273,744,-1504,7586,-35,-222,-369,0,0,0,0,0,0,0,0,0,0,0,0
137,274,-5754,-1356,6320,-876,-1817,269,814,-1796,7854,-35,-220,-370,0,0,0,0,0,0,0,0,0,0,0,0
138,276,-5670,-1126,6312,-876,-1817,264,646,-2132,8274,-35,-214,-375,0,0,0,0,0,0,0,0,0,0,0,0
139,278,-5418,-972,6408,-869,-1823,263,944,-1888,7872,-37,-214,-378,0,0,0,0,0,0,0,0,0,0,0,0
140,280,-5498,-700,6346,-872,-1829,260,910,-1786,8084,-31,-210,-381,0,0,0,0,0,0,0,0,0,0,0,0
141,282,-5468,-730,6330,-875,-1824,262,674,-1684,8184,-24,-210,-389,0,0,0,0,0,0,0,0,0,0,0,0
142,284,-5668,-852,6498,-873,-1819,263,528,-2170,7696,-17,-213,-389,0,0,0,0,0,0,0,0,0,0,0,0
143,286,-5310,-696,6462,-863,-1820,264,1054,-1702,7806,-13,-217,-395,0,0,0,0,0,0,0,0,0,0,0,0
144,288,-5310,-696,6462,-863,-1820,264,1096,-1518,7538,-17,-217,-395,0,0,0,0,0,0,0,0,0,0,0,0
145,290,-5360,-948,6260,-861,-1824,264,828,-1790,8202,-24,-212,-389,0,0,0,0,0,0,0,0,0,0,0,0
146,292,-5502,-882,6378,-864,-1822,270,810,-1814,8092,-22,-208,-383,0,0,0,0,0,0,0,0,0,0,0,0
147,294,-5564,-1136,6158,-861,-1821,270,656,-1770,7952,-20,-209,-386,0,0,0,0,0,0,0,0,0,0,0,0
148,296,-5218,-876,6046,-858,-1818,272,810,-1962,7706,-20,-208,-394,0,0,0,0,0,0,0,0,0,0,0,0
149,298,-5446,-1000,5818,-857,-1823,265,992,-2120,7716,-20,-206,-393,0,0,0,0,0,0,0,0,0,0,0,0
150,300,-5322,-710,5914,-863,-1816,261,312,-1556,7900,-21,-201,-391,0,0,0,0,0,0,0,0,0,0,0,0
151,302,-5546,-974,6152,-865,-1811,263,536,-2026,7970,-25,-204,-378,0,0,0,0,0,0,0,0,0,0,0,0
152,304,-5200,-1074,6456,-863,-1807,267,808,-1798,7946,-30,-207,-378,0,0,0,0,0,0,0,0,0,0,0,0
153,306,-5512,-806,6208,-863,-1815,270,810,-1914,7904,-27,-206,-373,0,0,0,0,0,0,0,0,0,0,0,0
154,308,-5630,-988,6202,-861,-1815,269,906,-1932,7612,-28,-210,-368,0,0,0,0,0,0,0,0,0,0,0,0
155,310,-5520,-1336,6452,-861,-1798,275,844,-1456,7724,-30,-213,-367,0,0,0,0,0,0,0,0,0,0,0,0
156,312,-5196,-1172,6516,-853,-1800,272,554,-1862,7954,-28,-218,-371,0,0,0,0,0,0,0,0,0,0,0,0
157,314,-5196,-1172,6516,-853,-1800,272,782,-2226,7826,-28,-221,-371,0,0,0,0,0,0,0,0,0,0,0,0
158,316,-5292,-892,6660,-856,-1807,267,890,-1594,7718,-33,-220,-364,0,0,0,0,0,0,0,0,0,0,0,0
159,318,-5212,-882,6730,-863,-1810,265,534,-1976,8058,-31,-214,-357,0,0,0,0,0,0,0,0,0,0,0,0
160,320,-5372,-966,6016,-865,-1817,263,604,-2072,7892,-33,-218,-357,0,0,0,0,0,0,0,0,0,0,0,0
161,322,-5426,-826,6190,-861,-1824,268,854,-1994,7940,-29,-223,-355,0,0,0,0,0,0,0,0,0,0,0,0
162,324,-5430,-1268,6636,-871,-1820,275,682,-1572,8232,-27,-221,-351,0,0,0,0,0,0,0,0,0,0,0,0
163,326,-5420,-1174,5986,-873,-1809,279,862,-1726,7866,-18,-215,-356,0,0,0,0,0,0,0,0,0,0,0,0
164,328,-5836,-1260,6296,-872,-1807,280,784,-1776,7926,-14,-215,-355,0,0,0,0,0,0,0,0,0,0,0,0
165,330,-5730,-1032,6784,-872,-1819,276,460,-1786,8220,-17,-218,-359,0,0,0,0,0,0,0,0,0,0,0,0
166,332,-5446,-1056,6536,-874,-1819,274,1086,-1754,8152,-20,-210,-361,0,0,0,0,0,0,0,0,0,0,0,0
167,334,-5320,-1176,6032,-879,-1819,274,282,-1886,8078,-16,-215,-368,0,0,0,0,0,0,0,0,0,0,0,0
168,336,-5328,-1096,6224,-879,-1814,270,708,-2180,7930,-21,-215,-370,0,0,0,0,0,0,0,0,0,0,0,0
169,338,-5396,-1006,6216,-875,-1820,269,984,-1894,7692,-17,-221,-381,0,0,0,0,0,0,0,0,0,0,0,0
170,340,-5438,-1096,6528,-880,-1816,273,520,-1910,7924,-21,-225,-377,0,0,0,0,0,0,0,0,0,0,0,0
171,342,-5382,-1562,6600,-885,-1813,277,856,-2184,8022,-25,-225,-377,0,0,0,0,0,0,0,0,0,0,0,0
172,344,-5470,-1404,6476,-884,-1817,276,732,-1718,7966,-20,-219,-373,0,0,0,0,0,0,0,0,0,0,0,0
173,346,-5396,-722,6162,-879,-1820,276,986,-2040,8180,-10,-221,-376,0,0,0,0,0,0,0,0,0,0,0,0
174,348,-5754,-1014,6352,-876,-1816,281,764,-1464,8146,-8,-222,-383,0,0,0,0,0,0,0,0,0,0,0,0
175,350,-5474,-1270,6116,-877,-1810,278,808,-2030,7860,-7,-219,-392,0,0,0,0,0,0,0,0,0,0,0,0
176,352,-5616,-1286,6376,-878,-1804,281,594,-2356,7932,-8,-218,-387,0,0,0,0,0,0,0,0,0,0,0,0
177,354,-5660,-1208,6322,-869,-1810,287,636,-1826,7778,-13,-220,-384,0,0,0,0,0,0,0,0,0,0,0,0
178,356,-5386,-1132,6536,-868,-1817,286,684,-1754,7774,-18,-224,-387,0,0,0,0,0,0,0,0,0,0,0,0
179,358,-5350,-1298,6056,-876,-1820,286,710,-1934,7998,-20,-223,-382,0,0,0,0,0,0,0,0,0,0,0,0
180,360,-5454,-1252,6390,-878,-1817,285,636,-1986,8020,-16,-224,-387,0,0,0,0,0,0,0,0,0,0,0,0
181,362,-5346,-1230,6436,-877,-1818,288,390,-1778,7878,-11,-220,-389,0,0,0,0,0,0,0,0,0,0,0,0
182,364,-5610,-1104,6308,-867,-1821,282,442,-1836,7990,-13,-215,-386,0,0,0,0,0,0,0,0,0,0,0,0
183,366,-5854,-812,6330,-873,-1825,282,604,-1776,8118,-16,-207,-384,0,0,0,0,0,0,0,0,0,0,0,0
184,368,-5398,-1150,6288,-878,-1824,287,706,-1564,7906,-20,-207,-387,0,0,0,0,0,0,0,0,0,0,0,0
185,370,-5254,-1134,6546,-873,-1832,287,758,-1684,8290,-27,-209,-392,0,0,0,0,0,0,0,0,0,0,0,0
186,372,-5564,-1262,6068,-874,-1843,287,886,-1844,8030,-34,-213,-387,0,0,0,0,0,0,0,0,0,0,0,0
187,374,-5454,-920,6114,-878,-1837,284,844,-1982,8130,-35,-216,-386,0,0,0,0,0,0,0,0,0,0,0,0
188,376,-5144,-1104,6124,-871,-1829,284,812,-1782,8006,-27,-211,-393,0,0,0,0,0,0,0,0,0,0,0,0
189,378,-5560,-1156,6350,-863,-1827,287,760,-2012,8250,-33,-209,-392,0,0,0,0,0,0,0,0,0,0,0,0
190,380,-5406,-894,6196,-858,-1833,283,298,-2076,7808,-33,-210,-388,0,0,0,0,0,0,0,0,0,0,0,0
191,382,-5662,-956,6202,-864,-1834,281,1098,-1452,7670,-31,-210,-383,0,0,0,0,0,0,0,0,0,0,0,0
192,384,-5574,-760,6092,-870,-1835,280,966,-1958,7920,-36,-209,-378,0,0,0,0,0,0,0,0,0,0,0,0
193,386,-5352,-1210,6340,-869,-1850,282,736,-1826,7850,-40,-209,-380,0,0,0,0,0,0,0,0,0,0,0,0
194,388,-5452,-1508,6190,-868,-1851,285,788,-1634,8096,-47,-213,-376,0,0,0,0,0,0,0,0,0,0,0,0
195,390,-5416,-1366,6214,-871,-1845,291,374,-1652,8066,-52,-214,-373,0,0,0,0,0,0,0,0,0,0,0,0
196,392,-5300,-1076,6738,-873,-1843,294,950,-1794,8128,-43,-215,-370,0,0,0,0,0,0,0,0,0,0,0,0
197,394,-5806,-858,6304,-877,-1836,291,814,-1780,7616,-45,-218,-370,0,0,0,0,0,0,0,0,0,0,0,0
198,396,-4980,-740,6564,-875,-1835,290,890,-1742,7784,-54,-220,-367,0,0,0,0,0,0,0,0,0,0,0,0
199,398,-5620,-668,6712,-882,-1837,291,848,-1706,7774,-53,-219,-365,0,0,0,0,0,0,0,0,0,0,0,0
200,400,-5774,-1014,5894,-886,-1838,294,464,-1948,7976,-43,-215,-368,0,0,0,0,0,0,0,0,0,0,0,0
201,403,-5728,-1306,6706,-886,-1832,300,450,-1750,7788,-44,-216,-363,0,0,0,0,0,0,0,0,0,0,0,0
202,404,-5728,-1306,6706,-886,-1832,300,978,-1868,7862,-47,-218,-353,0,0,0,0,0,0,0,0,0,0,0,0
203,406,-5300,-988,5964,-881,-1840,302,994,-1588,8110,-50,-225,-358,0,0,0,0,0,0,0,0,0,0,0,0
204,408,-5470,-1116,6416,-888,-1831,300,698,-2100,7734,-48,-225,-366,0,0,0,0,0,0,0,0,0,0,0,0
205,410,-5580,-1484,6406,-888,-1832,301,876,-2260,8162,-50,-225,-363,0,0,0,0,0,0,0,0,0,0,0,0
206,412,-5434,-1004,6400,-878,-1833,299,540,-1604,8012,-60,-229,-360,0,0,0,0,0,0,0,0,0,0,0,0
207,414,-5408,-1164,6706,-878,-1838,295,430,-1774,7980,-64,-231,-357,0,0,0,0,0,0,0,0,0,0,0,0
208,416,-5244,-902,6568,-872,-1837,291,602,-2090,7860,-65,-232,-352,0,0,0,0,0,0,0,0,0,0,0,0
209,418,-5652,-1252,6164,-868,-1820,294,568,-1698,7846,-67,-230,-354,0,0,0,0,0,0,0,0,0,0,0,0
210,420,-5468,-1264,6616,-869,-1821,294,1138,-2064,7936,-60,-232,-359,0,0,0,0,0,0,0,0,0,0,0,0
211,422,-5124,-1226,6344,-862,-1823,290,878,-1642,7820,-62,-234,-358,0,0,0,0,0,0,0,0,0,0,0,0
212,425,-5554,-962,6468,-863,-1821,286,394,-1680,8126,-69,-231,-354,0,0,0,0,0,0,0,0,0,0,0,0
213,426,-5142,-1246,6278,-863,-1822,286,774,-1756,7954,-65,-230,-351,0,0,0,0,0,0,0,0,0,0,0,0
214,428,-5634,-1364,6484,-854,-1826,286,942,-1820,7902,-72,-230,-346,0,0,0,0,0,0,0,0,0,0,0,0
215,430,-5692,-1322,6272,-852,-1832,287,734,-1826,7858,-72,-228,-346,0,0,0,0,0,0,0,0,0,0,0,0
216,432,-5496,-982,6794,-863,-1835,285,690,-1510,7770,-73,-226,-343,0,0,0,0,0,0,0,0,0,0,0,0
217,434,-5484,-1038,5750,-859,-1829,286,770,-1742,7990,-73,-228,-346,0,0,0,0,0,0,0,0,0,0,0,0
218,436,-5510,-1208,6108,-858,-1833,295,968,-1984,7850,-71,-232,-356,0,0,0,0,0,0,0,0,0,0,0,0
219,438,-5556,-964,6132,-862,-1840,290,798,-1782,7952,-75,-227,-355,0,0,0,0,0,0,0,0,0,0,0,0
220,440,-5556,-964,6132,-862,-1840,290,1112,-1842,7792,-74,-220,-361,0,0,0,0,0,0,0,0,0,0,0,0
221,442,-5410,-996,6396,-865,-1843,296,666,-1930,7820,-77,-216,-351,0,0,0,0,0,0,0,0,0,0,0,0
222,444,-5548,-1074,6622,-868,-1840,304,698,-1448,7896,-77,-218,-352,0,0,0,0,0,0,0,0,0,0,0,0
223,446,-5542,-1016,6488,-863,-1838,306,980,-1924,7920,-76,-221,-353,0,0,0,0,0,0,0,0,0,0,0,0
224,448,-5562,-970,6592,-863,-1838,307,496,-1824,7960,-73,-219,-355,0,0,0,0,0,0,0,0,0,0,0,0
225,450,-5602,-1206,6090,-869,-1838,310,830,-1986,7784,-75,-219,-356,0,0,0,0,0,0,0,0,0,0,0,0
226,453,-5548,-1544,6148,-866,-1835,310,594,-1350,7832,-77,-222,-356,0,0,0,0,0,0,0,0,0,0,0,0
227,455,-5548,-1544,6148,-866,-1835,310,834,-2078,8086,-75,-221,-349,0,0,0,0,0,0,0,0,0,0,0,0
228,457,-5510,-1252,6446,-858,-1846,304,590,-1780,8034,-70,-218,-342,0,0,0,0,0,0,0,0,0,0,0,0
229,459,-5018,-822,6478,-867,-1844,298,948,-1868,7952,-69,-220,-346,0,0,0,0,0,0,0,0,0,0,0,0
230,461,-5816,-1160,6346,-870,-1848,298,466,-1920,7786,-70,-227,-344,0,0,0,0,0,0,0,0,0,0,0,0
231,463,-5058,-1314,6512,-858,-1845,301,762,-2254,7978,-68,-219,-340,0,0,0,0,0,0,0,0,0,0,0,0
232,464,-5640,-1344,6340,-850,-1850,300,964,-1816,8048,-60,-217,-343,0,0,0,0,0,0,0,0,0,0,0,0
233,467,-5638,-982,6202,-855,-1849,297,876,-1666,8290,-56,-216,-350,0,0,0,0,0,0,0,0,0,0,0,0
234,469,-5286,-594,6530,-856,-1842,297,610,-1974,7994,-52,-219,-354,0,0,0,0,0,0,0,0,0,0,0,0
235,471,-5276,-1018,6168,-854,-1845,296,802,-1604,8026,-46,-222,-356,0,0,0,0,0,0,0,0,0,0,0,0
236,473,-5138,-992,6536,-851,-1844,297,614,-1866,7846,-49,-219,-358,0,0,0,0,0,0,0,0,0,0,0,0
237,474,-5476,-1352,6356,-850,-1846,299,554,-1634,8096,-46,-219,-371,0,0,0,0,0,0,0,0,0,0,0,0
238,476,-5532,-1338,6402,-852,-1851,301,1180,-1768,7996,-44,-221,-374,0,0,0,0,0,0,0,0,0,0,0,0
239,477,-5160,-1096,6372,-852,-1858,297,616,-2158,7778,-39,-220,-371,0,0,0,0,0,0,0,0,0,0,0,0
240,479,-5542,-1062,6500,-855,-1863,294,776,-1840,7676,-32,-218,-373,0,0,0,0,0,0,0,0,0,0,0,0
241,482,-5604,-748,6268,-855,-1861,293,954,-2018,8202,-29,-214,-375,0,0,0,0,0,0,0,0,0,0,0,0
242,484,-5588,-1296,6178,-859,-1849,293,950,-2288,7948,-33,-217,-371,0,0,0,0,0,0,0,0,0,0,0,0
243,486,-5512,-968,6038,-857,-1843,291,1272,-1644,7858,-37,-222,-365,0,0,0,0,0,0,0,0,0,0,0,0
244,488,-5766,-1032,6520,-856,-1846,288,640,-1614,8180,-43,-219,-358,0,0,0,0,0,0,0,0,0,0,0,0
245,490,-5304,-938,6072,-860,-1852,290,996,-1720,7924,-33,-212,-355,0,0,0,0,0,0,0,0,0,0,0,0
246,492,-5484,-1306,6200,-864,-1853,289,464,-1668,7718,-40,-214,-346,0,0,0,0,0,0,0,0,0,0,0,0
247,494,-5484,-1306,6200,-864,-1853,289,1262,-1864,7746,-42,-218,-347,0,0,0,0,0,0,0,0,0,0,0,0
248,496,-5460,-942,6024,-863,-1847,283,810,-1874,8062,-38,-219,-358,0,0,0,0,0,0,0,0,0,0,0,0
249,498,-5530,-1172,6198,-855,-1842,281,624,-2386,8294,-33,-215,-359,0,0,0,0,0,0,0,0,0,0,0,0
250,499,-5542,-868,6324,-852,-1842,285,524,-1700,7724,-31,-216,-358,0,0,0,0,0,0,0,0,0,0,0,0
251,502,-5298,-1060,6202,-855,-1839,283,850,-1882,7878,-30,-221,-365,0,0,0,0,0,0,0,0,0,0,0,0
252,503,-5342,-1050,6284,-861,-1837,284,932,-1704,7896,-34,-221,-368,0,0,0,0,0,0,0,0,0,0,0,0
253,506,-5474,-1008,6022,-868,-1851,281,930,-2038,7682,-31,-217,-371,0,0,0,0,0,0,0,0,0,0,0,0
254,508,-5954,-912,6570,-876,-1849,277,858,-2346,7950,-30,-215,-376,0,0,0,0,0,0,0,0,0,0,0,0
255,509,-5922,-1084,6330,-875,-1842,280,552,-1634,7834,-30,-215,-375,0,0,0,0,0,0,0,0,0,0,0,0
256,512,-5274,-1234,5984,-863,-1853,278,534,-2140,8128,-29,-214,-377,0,0,0,0,0,0,0,0,0,0,0,0
257,513,-5444,-1042,6376,-869,-1849,282,918,-1844,7822,-25,-208,-373,0,0,0,0,0,0,0,0,0,0,0,0
258,515,-5308,-1152,6542,-874,-1846,282,856,-2060,8112,-22,-202,-370,0,0,0,0,0,0,0,0,0,0,0,0
259,517,-5244,-1562,6456,-874,-1846,281,496,-1894,8140,-24,-207,-370,0,0,0,0,0,0,0,0,0,0,0,0
260,519,-5648,-1414,6538,-873,-1846,285,392,-2094,7840,-24,-208,-367,0,0,0,0,0,0,0,0,0,0,0,0
261,522,-5392,-1348,6034,-872,-1850,283,902,-2020,7892,-20,-208,-369,0,0,0,0,0,0,0,0,0,0,0,0
262,524,-5572,-878,6598,-870,-1845,278,764,-1588,7658,-16,-207,-374,0,0,0,0,0,0,0,0,0,0,0,0
263,526,-5524,-1276,6244,-879,-1850,282,810,-1474,8032,-16,-211,-375,0,0,0,0,0,0,0,0,0,0,0,0
264,528,-5392,-1260,6428,-873,-1844,287,1046,-1344,8186,-22,-214,-370,0,0,0,0,0,0,0,0,0,0,0,0
265,530,-5674,-1112,6190,-867,-1858,285,900,-1658,8060,-20,-213,-376,0,0,0,0,0,0,0,0,0,0,0,0
266,532,-5564,-1110,6342,-862,-1844,284,532,-1510,8146,-15,-212,-380,0,0,0,0,0,0,0,0,0,0,0,0
267,534,-5678,-1030,6432,-864,-1838,285,768,-1576,8130,-16,-211,-382,0,0,0,0,0,0,0,0,0,0,0,0
268,535,-5410,-1402,6310,-865,-1833,288,692,-1840,7930,-18,-210,-377,0,0,0,0,0,0,0,0,0,0,0,0
269,538,-5382,-1256,6246,-864,-1840,288,748,-1980,7638,-17,-209,-376,0,0,0,0,0,0,0,0,0,0,0,0
270,540,-5396,-1408,6228,-869,-1843,290,1240,-2064,7932,-19,-203,-375,0,0,0,0,0,0,0,0,0,0,0,0
271,542,-5408,-1108,6258,-871,-1845,292,770,-1860,7864,-14,-199,-380,0,0,0,0,0,0,0,0,0,0,0,0
272,544,-5352,-916,6424,-873,-1851,288,674,-1870,7984,-17,-204,-380,0,0,0,0,0,0,0,0,0,0,0,0
273,546,-5244,-1024,6452,-867,-1853,283,224,-1974,7984,-23,-208,-383,0,0,0,0,0,0,0,0,0,0,0,0
274,548,-5514,-994,6206,-860,-1853,287,1214,-1866,7802,-24,-209,-377,0,0,0,0,0,0,0,0,0,0,0,0
275,550,-5630,-1248,6278,-866,-1845,293,930,-1516,8094,-23,-212,-375,0,0,0,0,0,0,0,0,0,0,0,0
276,552,-5272,-974,6158,-868,-1843,288,926,-1882,8024,-26,-218,-373,0,0,0,0,0,0,0,0,0,0,0,0
277,554,-5560,-852,6170,-861,-1842,283,554,-1764,7884,-33,-221,-365,0,0,0,0,0,0,0,0,0,0,0,0
278,556,-5722,-1224,6468,-860,-1848,276,768,-1620,7868,-29,-220,-363,0,0,0,0,0,0,0,0,0,0,0,0
279,558,-5258,-948,6732,-855,-1845,272,780,-2076,7858,-30,-214,-362,0,0,0,0,0,0,0,0,0,0,0,0
280,560,-5356,-1240,6164,-857,-1837,274,1042,-1970,7712,-39,-214,-357,0,0,0,0,0,0,0,0,0,0,0,0
281,562,-5456,-746,6224,-858,-1841,272,1046,-1612,8010,-43,-222,-353,0,0,0,0,0,0,0,0,0,0,0,0
282,564,-5492,-1296,6194,-854,-1842,278,636,-2092,7888,-47,-219,-356,0,0,0,0,0,0,0,0,0,0,0,0
283,566,-5608,-1204,6180,-857,-1845,277,436,-2348,8274,-41,-211,-356,0,0,0,0,0,0,0,0,0,0,0,0
284,568,-5620,-1002,6452,-863,-1839,275,802,-2070,7698,-39,-212,-357,0,0,0,0,0,0,0,0,0,0,0,0
285,570,-5688,-1204,6536,-866,-1856,279,638,-1818,8316,-32,-221,-366,0,0,0,0,0,0,0,0,0,0,0,0
286,572,-5582,-1190,6420,-867,-1853,281,1106,-1726,7708,-34,-224,-356,0,0,0,0,0,0,0,0,0,0,0,0
287,574,-5696,-1342,6050,-867,-1852,274,384,-1890,7982,-40,-222,-349,0,0,0,0,0,0,0,0,0,0,0,0
288,576,-5262,-1102,6440,-870,-1844,276,1082,-1592,7996,-41,-221,-355,0,0,0,0,0,0,0,0,0,0,0,0
289,578,-5588,-1194,5932,-866,-1846,276,726,-1572,8078,-48,-221,-354,0,0,0,0,0,0,0,0,0,0,0,0
290,580,-5796,-1268,6416,-864,-1844,279,1094,-1618,8068,-49,-215,-352,0,0,0,0,0,0,0,0,0,0,0,0
291,582,-5440,-1094,6248,-865,-1837,281,720,-1624,8262,-48,-212,-351,0,0,0,0,0,0,0,0,0,0,0,0
292,584,-5414,-1092,6340,-871,-1837,281,484,-1704,8122,-52,-212,-347,0,0,0,0,0,0,0,0,0,0,0,0
293,586,-5388,-1040,6198,-874,-1842,283,758,-1954,8098,-59,-218,-338,0,0,0,0,0,0,0,0,0,0,0,0
294,588,-5518,-1002,6630,-867,-1854,287,976,-1720,7996,-62,-219,-341,0,0,0,0,0,0,0,0,0,0,0,0
295,590,-5158,-1178,6442,-872,-1853,281,626,-1706,8204,-58,-217,-342,0,0,0,0,0,0,0,0,0,0,0,0
296,592,-5402,-1128,6438,-877,-1852,274,598,-1912,8372,-56,-213,-350,0,0,0,0,0,0,0,0,0,0,0,0
297,594,-5682,-1226,6340,-875,-1851,274,756,-1716,8160,-60,-212,-356,0,0,0,0,0,0,0,0,0,0,0,0
298,596,-6056,-1158,6316,-865,-1852,273,952,-1716,8376,-65,-219,-356,0,0,0,0,0,0,0,0,0,0,0,0
299,598,-5310,-1462,6416,-863,-1853,279,582,-2018,7924,-66,-222,-360,0,0,0,0,0,0,0,0,0,0,0,0
300,600,-5356,-1178,6440,-870,-1848,281,732,-1708,8306,-61,-220,-366,0,0,0,0,0,0,0,0,0,0,0,0
301,602,-5744,-950,6236,-873,-1853,276,768,-1984,8032,-62,-223,-362,0,0,0,0,0,0,0,0,0,0,0,0
302,604,-5464,-1132,6538,-870,-1853,274,616,-1840,7986,-68,-232,-364,0,0,0,0,0,0,0,0,0,0,0,0
303,606,-5718,-1050,6550,-865,-1854,272,784,-1530,7930,-67,-229,-370,0,0,0,0,0,0,0,0,0,0,0,0
304,608,-5282,-782,6488,-865,-1855,274,782,-2214,7932,-70,-228,-373,0,0,0,0,0,0,0,0,0,0,0,0
305,610,-5450,-1032,6370,-873,-1852,276,792,-1918,8034,-76,-223,-375,0,0,0,0,0,0,0,0,0,0,0,0
306,612,-5484,-1142,6222,-867,-1855,274,378,-1704,7928,-76,-227,-380,0,0,0,0,0,0,0,0,0,0,0,0
307,614,-5396,-1006,6384,-869,-1858,275,354,-2032,7944,-72,-220,-377,0,0,0,0,0,0,0,0,0,0,0,0
308,616,-5620,-1448,5954,-872,-1850,279,702,-1446,7946,-68,-214,-378,0,0,0,0,0,0,0,0,0,0,0,0
309,618,-5660,-946,6176,-874,-1839,290,1116,-1690,7954,-66,-216,-382,0,0,0,0,0,0,0,0,0,0,0,0
310,620,-5752,-1228,6346,-872,-1833,295,562,-1496,8020,-67,-216,-387,0,0,0,0,0,0,0,0,0,0,0,0
311,622,-5564,-1168,6686,-866,-1834,290,684,-1968,7994,-69,-213,-387,0,0,0,0,0,0,0,0,0,0,0,0
312,624,-4906,-1254,6062,-869,-1829,285,684,-2316,8084,-62,-209,-387,0,0,0,0,0,0,0,0,0,0,0,0
313,626,-5774,-764,6102,-869,-1824,287,962,-1688,8258,-60,-205,-382,0,0,0,0,0,0,0,0,0,0,0,0
314,628,-5662,-1112,6262,-868,-1827,293,540,-1638,8026,-65,-207,-377,0,0,0,0,0,0,0,0,0,0,0,0
315,630,-5286,-748,6400,-864,-1831,293,604,-1874,7934,-66,-206,-377,0,0,0,0,0,0,0,0,0,0,0,0
316,632,-5324,-998,6188,-862,-1832,292,660,-1508,7872,-66,-204,-379,0,0,0,0,0,0,0,0,0,0,0,0
317,634,-5298,-1110,6510,-863,-1828,289,396,-1414,8068,-64,-202,-382,0,0,0,0,0,0,0,0,0,0,0,0
318,636,-5486,-1062,6114,-860,-1828,289,1076,-1696,7688,-69,-206,-377,0,0,0,0,0,0,0,0,0,0,0,0
319,638,-5302,-1108,6654,-857,-1834,286,782,-1676,7838,-69,-213,-374,0,0,0,0,0,0,0,0,0,0,0,0
320,640,-5286,-1008,6446,-859,-1831,284,854,-1830,7902,-73,-216,-374,0,0,0,0,0,0,0,0,0,0,0,0
321,642,-5532,-1034,6152,-865,-1826,286,902,-1720,8244,-76,-215,-373,0,0,0,0,0,0,0,0,0,0,0,0
322,644,-5278,-1318,6164,-859,-1824,283,870,-1808,8140,-74,-210,-375,0,0,0,0,0,0,0,0,0,0,0,0
323,646,-5204,-1174,6368,-858,-1827,285,636,-1908,7660,-79,-209,-371,0,0,0,0,0,0,0,0,0,0,0,0
324,648,-5380,-948,6642,-856,-1834,289,176,-1588,8108,-80,-214,-369,0,0,0,0,0,0,0,0,0,0,0,0
325,650,-5516,-1432,5980,-848,-1835,296,788,-1828,7856,-71,-215,-373,0,0,0,0,0,0,0,0,0,0,0,0
326,652,-5432,-1094,6218,-841,-1839,292,756,-2176,7814,-71,-216,-376,0,0,0,0,0,0,0,0,0,0,0,0
327,654,-5148,-1012,6296,-836,-1846,291,390,-1808,8072,-73,-222,-375,0,0,0,0,0,0,0,0,0,0,0,0
328,656,-5464,-830,6072,-832,-1845,291,634,-1908,7900,-76,-221,-370,0,0,0,0,0,0,0,0,0,0,0,0
329,658,-5318,-1570,6234,-831,-1842,295,480,-2138,7604,-74,-223,-371,0,0,0,0,0,0,0,0,0,0,0,0
330,660,-5520,-1130,5986,-832,-1827,295,1294,-1564,7674,-71,-222,-372,0,0,0,0,0,0,0,0,0,0,0,0
331,662,-5342,-1364,6188,-831,-1828,288,694,-2070,7594,-73,-221,-371,0,0,0,0,0,0,0,0,0,0,0,0
332,664,-5652,-934,6528,-825,-1845,283,1174,-1468,8110,-78,-221,-369,0,0,0,0,0,0,0,0,0,0,0,0
333,666,-5366,-1536,6390,-826,-1850,281,746,-1784,7842,-79,-221,-379,0,0,0,0,0,0,0,0,0,0,0,0
334,668,-5328,-1244,6624,-832,-1845,285,434,-2126,8016,-80,-218,-378,0,0,0,0,0,0,0,0,0,0,0,0
335,670,-5572,-1240,6494,-832,-1838,289,778,-1746,8070,-71,-217,-378,0,0,0,0,0,0,0,0,0,0,0,0
336,672,-5506,-1160,6210,-827,-1836,290,1030,-1806,7884,-69,-217,-373,0,0,0,0,0,0,0,0,0,0,0,0
337,674,-5332,-1356,6470,-827,-1834,292,888,-2096,7800,-76,-216,-366,0,0,0,0,0,0,0,0,0,0,0,0
338,676,-5234,-1008,6286,-834,-1834,292,434,-1642,7950,-78,-212,-364,0,0,0,0,0,0,0,0,0,0,0,0
339,678,-5494,-992,6488,-839,-1834,288,694,-1640,7950,-79,-215,-365,0,0,0,0,0,0,0,0,0,0,0,0
340,680,-5412,-1074,6212,-838,-1841,285,720,-1804,8094,-76,-213,-365,0,0,0,0,0,0,0,0,0,0,0,0
341,682,-5388,-1476,6332,-837,-1842,282,808,-1822,7694,-72,-217,-365,0,0,0,0,0,0,0,0,0,0,0,0
342,684,-5524,-1264,6442,-836,-1831,283,372,-1876,7862,-73,-218,-363,0,0,0,0,0,0,0,0,0,0,0,0
343,686,-5646,-1276,6668,-835,-1834,284,588,-2004,8062,-71,-219,-366,0,0,0,0,0,0,0,0,0,0,0,0
344,688,-5390,-978,6404,-828,-1838,282,838,-1832,7836,-69,-222,-366,0,0,0,0,0,0,0,0,0,0,0,0
345,690,-5394,-1300,6254,-826,-1846,285,646,-1886,7860,-69,-225,-362,0,0,0,0,0,0,0,0,0,0,0,0
346,692,-5418,-1384,5726,-836,-1853,286,884,-1890,7954,-74,-223,-354,0,0,0,0,0,0,0,0,0,0,0,0
347,694,-5302,-1172,6458,-841,-1845,287,810,-1888,7848,-75,-225,-358,0,0,0,0,0,0,0,0,0,0,0,0
348,696,-5592,-1040,6778,-839,-1842,280,1010,-1884,7952,-72,-226,-357,0,0,0,0,0,0,0,0,0,0,0,0
349,698,-5752,-1164,6364,-831,-1840,274,538,-2038,7966,-65,-226,-359,0,0,0,0,0,0,0,0,0,0,0,0
350,700,-5378,-1030,6266,-830,-1845,273,1122,-2248,7936,-60,-230,-358,0,0,0,0,0,0,0,0,0,0,0,0
351,702,-5684,-1018,6548,-838,-1841,269,1000,-1938,7446,-60,-235,-364,0,0,0,0,0,0,0,0,0,0,0,0
352,704,-5316,-984,6676,-835,-1845,261,904,-2094,7642,-63,-237,-368,0,0,0,0,0,0,0,0,0,0,0,0
353,706,-5566,-1050,6220,-829,-1843,257,700,-1900,7844,-59,-236,-360,0,0,0,0,0,0,0,0,0,0,0,0
354,708,-5530,-1326,6238,-830,-1837,258,946,-1760,7678,-58,-239,-358,0,0,0,0,0,0,0,0,0,0,0,0
355,710,-5692,-972,6008,-839,-1832,257,380,-1504,8010,-57,-240,-360,0,0,0,0,0,0,0,0,0,0,0,0
356,712,-5408,-1378,5856,-836,-1830,262,1272,-1830,7828,-55,-238,-366,0,0,0,0,0,0,0,0,0,0,0,0
357,714,-5476,-964,6404,-838,-1837,267,256,-1928,8088,-56,-232,-366,0,0,0,0,0,0,0,0,0,0,0,0
358,716,-5592,-1412,6682,-843,-1837,261,524,-2154,7722,-60,-231,-361,0,0,0,0,0,0,0,0,0,0,0,0
359,718,-5412,-978,6182,-847,-1839,256,32,-1542,7730,-52,-229,-363,0,0,0,0,0,0,0,0,0,0,0,0
360,720,-5692,-1146,6194,-844,-1840,254,650,-1934,7856,-51,-223,-364,0,0,0,0,0,0,0,0,0,0,0,0
361,722,-5434,-1082,6618,-841,-1844,251,680,-1872,8126,-50,-220,-367,0,0,0,0,0,0,0,0,0,0,0,0
362,724,-5378,-1202,6178,-841,-1849,252,1030,-1566,7810,-39,-216,-367,0,0,0,0,0,0,0,0,0,0,0,0
363,726,-5232,-1162,6542,-855,-1843,249,680,-1768,8112,-37,-217,-364,0,0,0,0,0,0,0,0,0,0,0,0
364,728,-5670,-1200,6572,-856,-1843,257,366,-1840,7972,-30,-215,-365,0,0,0,0,0,0,0,0,0,0,0,0
365,730,-5694,-1278,6554,-855,-1853,259,720,-1762,8152,-25,-216,-369,0,0,0,0,0,0,0,0,0,0,0,0
366,732,-5290,-1252,6352,-855,-1852,258,1144,-1460,7924,-22,-218,-368,0,0,0,0,0,0,0,0,0,0,0,0
367,734,-5380,-1280,5954,-858,-1846,268,794,-1334,8034,-22,-219,-364,0,0,0,0,0,0,0,0,0,0,0,0
368,736,-5534,-920,6066,-858,-1843,271,676,-1780,8002,-26,-220,-372,0,0,0,0,0,0,0,0,0,0,0,0
369,738,-5422,-1348,6122,-852,-1839,265,710,-2332,7874,-26,-215,-377,0,0,0,0,0,0,0,0,0,0,0,0
370,740,-5478,-910,6466,-854,-1839,262,648,-1868,7796,-22,-216,-371,0,0,0,0,0,0,0,0,0,0,0,0
371,742,-5694,-1194,6484,-851,-1842,259,852,-1900,7972,-23,-213,-368,0,0,0,0,0,0,0,0,0,0,0,0
372,744,-5242,-1226,5826,-855,-1839,253,340,-1712,7810,-24,-208,-366,0,0,0,0,0,0,0,0,0,0,0,0
373,746,-5464,-1300,6448,-860,-1846,256,500,-1862,8340,-28,-204,-365,0,0,0,0,0,0,0,0,0,0,0,0
374,748,-5418,-982,6216,-852,-1855,260,398,-1488,8098,-30,-205,-356,0,0,0,0,0,0,0,0,0,0,0,0
375,750,-5414,-1550,6394,-851,-1846,263,594,-1686,8086,-29,-200,-361,0,0,0,0,0,0,0,0,0,0,0,0
376,752,-5308,-862,6502,-862,-1838,264,856,-1926,7916,-27,-195,-367,0,0,0,0,0,0,0,0,0,0,0,0
377,754,-5540,-838,6064,-863,-1842,260,1150,-1906,8014,-29,-199,-363,0,0,0,0,0,0,0,0,0,0,0,0
378,756,-5386,-1028,6636,-864,-1849,254,740,-1708,7824,-31,-197,-362,0,0,0,0,0,0,0,0,0,0,0,0
379,758,-5370,-1236,6168,-866,-1844,251,736,-1916,7700,-33,-200,-354,0,0,0,0,0,0,0,0,0,0,0,0
380,760,-5458,-1200,6576,-874,-1845,247,750,-2202,7770,-32,-203,-354,0,0,0,0,0,0,0,0,0,0,0,0
381,762,-5504,-1058,5886,-879,-1853,247,876,-1848,7816,-25,-209,-359,0,0,0,0,0,0,0,0,0,0,0,0
382,764,-5538,-1208,6294,-876,-1863,253,612,-2430,8104,-18,-210,-363,0,0,0,0,0,0,0,0,0,0,0,0
383,766,-5404,-1186,6348,-879,-1865,256,1002,-1686,7830,-14,-209,-369,0,0,0,0,0,0,0,0,0,0,0,0
384,768,-5320,-890,6552,-875,-1857,257,476,-2112,8180,-20,-214,-367,0,0,0,0,0,0,0,0,0,0,0,0
385,770,-5948,-916,6190,-867,-1865,261,856,-1884,8082,-21,-213,-363,0,0,0,0,0,0,0,0,0,0,0,0
386,772,-5662,-1306,6268,-868,-1873,262,1076,-1764,7968,-23,-212,-365,0,0,0,0,0,0,0,0,0,0,0,0
387,774,-5314,-906,6082,-875,-1869,262,820,-1764,7838,-26,-211,-363,0,0,0,0,0,0,0,0,0,0,0,0
388,776,-5554,-1022,6422,-875,-1860,262,664,-1456,7838,-29,-211,-366,0,0,0,0,0,0,0,0,0,0,0,0
389,778,-5632,-1228,6358,-879,-1859,262,628,-2042,7822,-25,-211,-371,0,0,0,0,0,0,0,0,0,0,0,0
390,780,-5464,-1140,6622,-873,-1860,255,628,-2050,7836,-22,-210,-372,0,0,0,0,0,0,0,0,0,0,0,0
391,782,-5388,-1158,6416,-868,-1863,252,902,-2270,7630,-17,-215,-362,0,0,0,0,0,0,0,0,0,0,0,0
392,784,-5650,-1130,6398,-868,-1865,251,444,-1888,8068,-22,-219,-357,0,0,0,0,0,0,0,0,0,0,0,0
393,786,-5606,-906,6548,-871,-1863,255,934,-1708,7876,-25,-228,-359,0,0,0,0,0,0,0,0,0,0,0,0
394,788,-5576,-1140,6546,-870,-1860,259,752,-1780,7568,-28,-232,-359,0,0,0,0,0,0,0,0,0,0,0,0
395,790,-5514,-1002,6134,-871,-1861,256,838,-1904,7920,-25,-226,-352,0,0,0,0,0,0,0,0,0,0,0,0
396,792,-5320,-1064,6330,-875,-1855,255,1118,-1746,8002,-30,-226,-350,0,0,0,0,0,0,0,0,0,0,0,0
397,794,-5402,-922,6058,-881,-1848,255,730,-1660,8256,-37,-230,-353,0,0,0,0,0,0,0,0,0,0,0,0
398,796,-5658,-1088,6234,-879,-1853,258,1048,-1914,7870,-40,-233,-353,0,0,0,0,0,0,0,0,0,0,0,0
399,798,-5342,-1190,6692,-873,-1854,265,892,-1620,7974,-35,-231,-351,0,0,0,0,0,0,0,0,0,0,0,0
400,800,-5716,-1260,6234,-871,-1849,270,950,-1788,8152,-31,-232,-345,0,0,0,0,0,0,0,0,0,0,0,0
401,802,-5520,-1198,6030,-873,-1860,278,850,-1928,7992,-31,-235,-348,0,0,0,0,0,0,0,0,0,0,0,0
402,804,-5468,-1240,6266,-868,-1862,279,780,-1812,7892,-32,-238,-357,0,0,0,0,0,0,0,0,0,0,0,0
403,806,-5400,-1152,6394,-863,-1861,283,920,-1910,7992,-34,-234,-356,0,0,0,0,0,0,0,0,0,0,0,0
404,808,-5458,-916,6670,-861,-1863,285,766,-1474,7516,-28,-226,-356,0,0,0,0,0,0,0,0,0,0,0,0
405,810,-5796,-1422,6608,-863,-1865,282,1080,-1518,7652,-30,-224,-360,0,0,0,0,0,0,0,0,0,0,0,0
406,812,-5876,-1434,6764,-868,-1871,279,764,-1950,8038,-35,-226,-354,0,0,0,0,0,0,0,0,0,0,0,0
407,814,-5448,-1288,6342,-865,-1883,269,984,-1906,8030,-40,-225,-350,0,0,0,0,0,0,0,0,0,0,0,0
408,816,-5452,-1072,6208,-866,-1879,273,940,-1744,7920,-46,-219,-353,0,0,0,0,0,0,0,0,0,0,0,0
409,818,-5488,-1284,6388,-869,-1875,279,656,-1992,8070,-43,-218,-352,0,0,0,0,0,0,0,0,0,0,0,0
410,820,-5522,-1294,6514,-871,-1873,280,442,-2106,7748,-41,-220,-357,0,0,0,0,0,0,0,0,0,0,0,0
411,822,-5466,-870,6856,-864,-1884,279,418,-2054,8120,-42,-224,-364,0,0,0,0,0,0,0,0,0,0,0,0
412,824,-5356,-1260,6232,-863,-1885,283,128,-1886,8058,-45,-220,-362,0,0,0,0,0,0,0,0,0,0,0,0
413,826,-5318,-1480,5992,-867,-1881,283,674,-1898,8096,-50,-218,-356,0,0,0,0,0,0,0,0,0,0,0,0
414,828,-5794,-1370,6222,-869,-1877,280,482,-1870,7994,-54,-221,-353,0,0,0,0,0,0,0,0,0,0,0,0
415,830,-5368,-1140,6278,-866,-1876,282,408,-1768,7942,-53,-225,-358,0,0,0,0,0,0,0,0,0,0,0,0
416,832,-5498,-796,5702,-864,-1877,287,742,-1882,7924,-63,-221,-362,0,0,0,0,0,0,0,0,0,0,0,0
417,834,-5572,-898,5818,-866,-1874,286,1140,-1664,7940,-60,-220,-361,0,0,0,0,0,0,0,0,0,0,0,0
418,836,-5452,-1266,6020,-866,-1863,281,570,-1650,7670,-62,-224,-363,0,0,0,0,0,0,0,0,0,0,0,0
419,838,-5564,-1208,6518,-869,-1862,287,1026,-1944,8024,-65,-222,-365,0,0,0,0,0,0,0,0,0,0,0,0
420,840,-5424,-1222,6232,-867,-1862,290,628,-1582,8148,-71,-217,-369,0,0,0,0,0,0,0,0,0,0,0,0
421,842,-5342,-1242,6648,-868,-1856,285,672,-1620,8068,-77,-221,-366,0,0,0,0,0,0,0,0,0,0,0,0
422,844,-5646,-1066,6502,-871,-1842,287,566,-1750,8008,-77,-224,-367,0,0,0,0,0,0,0,0,0,0,0,0
423,846,-5248,-906,6378,-863,-1833,292,1012,-1854,8122,-74,-225,-360,0,0,0,0,0,0,0,0,0,0,0,0
424,848,-5176,-736,6688,-864,-1837,291,938,-1818,7958,-83,-227,-356,0,0,0,0,0,0,0,0,0,0,0,0
425,850,-5364,-1130,6404,-869,-1837,284,876,-2028,8090,-80,-223,-361,0,0,0,0,0,0,0,0,0,0,0,0
426,852,-5096,-1210,6108,-872,-1838,281,780,-1874,7996,-85,-226,-361,0,0,0,0,0,0,0,0,0,0,0,0
427,854,-5622,-1166,6376,-871,-1846,286,684,-1650,8092,-83,-224,-362,0,0,0,0,0,0,0,0,0,0,0,0
428,856,-5760,-926,6476,-879,-1849,286,862,-1652,7696,-84,-227,-360,0,0,0,0,0,0,0,0,0,0,0,0
429,858,-5556,-1202,6278,-876,-1845,282,754,-1712,8008,-85,-235,-357,0,0,0,0,0,0,0,0,0,0,0,0
430,860,-5786,-1106,6454,-879,-1837,282,510,-2126,8050,-80,-231,-352,0,0,0,0,0,0,0,0,0,0,0,0
431,862,-5584,-1464,6306,-882,-1830,282,384,-1592,8026,-76,-226,-351,0,0,0,0,0,0,0,0,0,0,0,0
432,864,-5452,-1008,6456,-882,-1838,282,964,-1848,8248,-78,-216,-353,0,0,0,0,0,0,0,0,0,0,0,0
433,866,-5562,-1144,6552,-882,-1847,287,892,-1670,8166,-78,-210,-360,0,0,0,0,0,0,0,0,0,0,0,0
434,868,-5894,-1052,6158,-887,-1848,291,674,-1820,7856,-82,-210,-358,0,0,0,0,0,0,0,0,0,0,0,0
435,870,-5650,-1476,6550,-887,-1845,296,790,-2060,7984,-85,-210,-361,0,0,0,0,0,0,0,0,0,0,0,0
436,872,-5502,-966,6100,-874,-1849,292,1208,-1716,7886,-86,-210,-367,0,0,0,0,0,0,0,0,0,0,0,0
437,874,-5500,-1034,6654,-876,-1855,281,880,-1266,8114,-83,-206,-374,0,0,0,0,0,0,0,0,0,0,0,0
438,876,-5440,-1250,6154,-884,-1856,277,830,-1658,7984,-88,-205,-381,0,0,0,0,0,0,0,0,0,0,0,0
439,878,-5404,-902,6138,-887,-1869,274,852,-1674,7878,-87,-209,-385,0,0,0,0,0,0,0,0,0,0,0,0
440,880,-5756,-1512,6376,-890,-1865,271,976,-1768,8106,-91,-210,-391,0,0,0,0,0,0,0,0,0,0,0,0
441,882,-5678,-1206,6440,-888,-1855,272,1208,-2100,7936,-90,-209,-382,0,0,0,0,0,0,0,0,0,0,0,0
442,884,-5398,-1166,6514,-887,-1850,278,952,-1470,7706,-88,-207,-386,0,0,0,0,0,0,0,0,0,0,0,0
443,886,-5360,-976,6374,-883,-1848,274,432,-1800,7758,-87,-208,-386,0,0,0,0,0,0,0,0,0,0,0,0
444,888,-5332,-1140,6090,-884,-1848,274,1152,-2036,7634,-92,-210,-383,0,0,0,0,0,0,0,0,0,0,0,0
445,890,-5400,-1088,6186,-880,-1849,271,364,-1498,8374,-92,-213,-379,0,0,0,0,0,0,0,0,0,0,0,0
446,892,-5570,-988,6522,-882,-1848,270,974,-1906,7822,-88,-205,-380,0,0,0,0,0,0,0,0,0,0,0,0
447,894,-5316,-1122,6380,-891,-1837,276,970,-1940,7620,-87,-195,-378,0,0,0,0,0,0,0,0,0,0,0,0
448,896,-5448,-984,6688,-885,-1840,276,612,-1608,7752,-87,-195,-375,0,0,0,0,0,0,0,0,0,0,0,0
449,898,-5284,-1374,6222,-882,-1842,273,590,-1808,7866,-93,-197,-373,0,0,0,0,0,0,0,0,0,0,0,0
450,900,-5384,-1088,5946,-884,-1839,271,370,-1764,7932,-87,-198,-372,0,0,0,0,0,0,0,0,0,0,0,0
451,902,-5666,-1126,6068,-885,-1836,274,292,-1818,7798,-87,-198,-367,0,0,0,0,0,0,0,0,0,0,0,0
452,904,-5694,-1212,6402,-874,-1840,275,774,-2054,7704,-86,-204,-366,0,0,0,0,0,0,0,0,0,0,0,0
453,906,-5366,-940,6464,-874,-1843,270,672,-1582,8080,-83,-212,-366,0,0,0,0,0,0,0,0,0,0,0,0
454,908,-5210,-1466,5982,-878,-1841,270,1018,-1478,8478,-80,-216,-362,0,0,0,0,0,0,0,0,0,0,0,0
455,910,-5474,-834,6168,-882,-1841,269,1086,-2176,8052,-77,-215,-358,0,0,0,0,0,0,0,0,0,0,0,0
456,912,-5436,-928,6596,-879,-1847,268,902,-1954,7786,-76,-210,-355,0,0,0,0,0,0,0,0,0,0,0,0
457,914,-5376,-1070,6736,-874,-1842,277,1016,-1906,8220,-75,-209,-352,0,0,0,0,0,0,0,0,0,0,0,0
458,916,-5088,-1144,6292,-871,-1841,270,914,-2136,8016,-78,-205,-342,0,0,0,0,0,0,0,0,0,0,0,0
459,918,-5468,-1124,6034,-875,-1847,267,564,-1704,8046,-75,-206,-343,0,0,0,0,0,0,0,0,0,0,0,0
460,920,-5790,-1148,6342,-876,-1848,267,746,-1804,7962,-67,-205,-348,0,0,0,0,0,0,0,0,0,0,0,0
461,922,-5536,-1258,6446,-870,-1854,264,1016,-2224,7684,-66,-208,-344,0,0,0,0,0,0,0,0,0,0,0,0
462,924,-5464,-798,6362,-871,-1861,259,1150,-1750,7994,-70,-209,-341,0,0,0,0,0,0,0,0,0,0,0,0
463,926,-5808,-1224,6322,-878,-1860,264,684,-1590,8084,-73,-214,-336,0,0,0,0,0,0,0,0,0,0,0,0
464,928,-5696,-1252,6522,-882,-1862,264,880,-1502,7942,-73,-217,-340,0,0,0,0,0,0,0,0,0,0,0,0
465,930,-5434,-1374,6238,-870,-1867,265,1048,-1852,7666,-68,-219,-347,0,0,0,0,0,0,0,0,0,0,0,0
466,932,-5300,-1204,6446,-864,-1871,262,1242,-2332,8042,-65,-221,-348,0,0,0,0,0,0,0,0,0,0,0,0
467,934,-5400,-1074,6112,-869,-1866,257,1048,-1914,7750,-69,-220,-346,0,0,0,0,0,0,0,0,0,0,0,0
468,936,-5528,-1042,6120,-870,-1871,259,606,-1402,7854,-72,-222,-345,0,0,0,0,0,0,0,0,0,0,0,0
469,938,-5168,-1082,6046,-869,-1879,263,800,-2016,7884,-68,-221,-342,0,0,0,0,0,0,0,0,0,0,0,0
470,940,-5322,-1366,6768,-871,-1879,266,920,-1872,7804,-68,-219,-344,0,0,0,0,0,0,0,0,0,0,0,0
471,942,-5420,-930,6454,-873,-1872,264,856,-1794,7734,-70,-216,-342,0,0,0,0,0,0,0,0,0,0,0,0
472,944,-5318,-1418,6274,-882,-1868,260,732,-1722,7634,-70,-214,-347,0,0,0,0,0,0,0,0,0,0,0,0
473,946,-5320,-1096,6558,-879,-1868,252,496,-2018,7918,-70,-214,-347,0,0,0,0,0,0,0,0,0,0,0,0
474,948,-5696,-1488,6424,-873,-1872,253,190,-1478,8026,-73,-217,-345,0,0,0,0,0,0,0,0,0,0,0,0
475,950,-5356,-1164,6754,-877,-1871,254,554,-1978,7764,-65,-220,-343,0,0,0,0,0,0,0,0,0,0,0,0
476,952,-5398,-910,6222,-884,-1870,252,950,-1552,7970,-67,-217,-343,0,0,0,0,0,0,0,0,0,0,0,0
477,954,-5526,-992,5914,-886,-1873,258,684,-1674,8150,-67,-217,-340,0,0,0,0,0,0,0,0,0,0,0,0
478,956,-5692,-1260,6514,-883,-1874,265,832,-1762,8170,-67,-213,-338,0,0,0,0,0,0,0,0,0,0,0,0
479,958,-5562,-964,6446,-887,-1875,266,1184,-1574,7930,-61,-205,-339,0,0,0,0,0,0,0,0,0,0,0,0
480,960,-5434,-1144,6488,-883,-1872,274,978,-2244,7942,-58,-204,-340,0,0,0,0,0,0,0,0,0,0,0,0
481,962,-5398,-1126,6320,-880,-1871,278,396,-1670,8058,-51,-205,-344,0,0,0,0,0,0,0,0,0,0,0,0
482,964,-5562,-978,6410,-876,-1872,282,640,-1628,8016,-52,-209,-348,0,0,0,0,0,0,0,0,0,0,0,0
483,966,-5474,-1276,6434,-872,-1869,283,784,-1956,7804,-55,-208,-358,0,0,0,0,0,0,0,0,0,0,0,0
484,968,-5468,-1136,6686,-882,-1867,276,832,-1774,8226,-55,-207,-359,0,0,0,0,0,0,0,0,0,0,0,0
485,970,-5354,-982,6482,-883,-1864,274,980,-1782,8190,-55,-207,-359,0,0,0,0,0,0,0,0,0,0,0,0
486,972,-5472,-1080,6350,-877,-1866,266,648,-1732,8074,-55,-205,-367,0,0,0,0,0,0,0,0,0,0,0,0
487,974,-5246,-892,6276,-870,-1865,262,1054,-1764,7760,-58,-203,-367,0,0,0,0,0,0,0,0,0,0,0,0
488,976,-5330,-1222,6428,-872,-1862,260,1074,-1734,8218,-58,-205,-364,0,0,0,0,0,0,0,0,0,0,0,0
489,978,-5442,-1144,5960,-879,-1860,260,942,-1818,7928,-59,-202,-365,0,0,0,0,0,0,0,0,0,0,0,0
490,980,-5458,-926,6458,-877,-1860,260,1102,-1444,7842,-54,-200,-374,0,0,0,0,0,0,0,0,0,0,0,0
491,982,-5266,-1046,6466,-872,-1863,266,636,-1794,8116,-44,-196,-379,0,0,0,0,0,0,0,0,0,0,0,0
492,984,-5320,-1126,6620,-877,-1857,268,870,-1962,7828,-42,-199,-375,0,0,0,0,0,0,0,0,0,0,0,0
493,986,-5314,-974,6502,-869,-1855,268,822,-2048,8230,-34,-202,-382,0,0,0,0,0,0,0,0,0,0,0,0
494,988,-5538,-938,6376,-860,-1852,276,942,-1970,7898,-40,-196,-384,0,0,0,0,0,0,0,0,0,0,0,0
495,990,-5086,-976,6190,-857,-1852,271,578,-1604,8042,-46,-192,-380,0,0,0,0,0,0,0,0,0,0,0,0
496,992,-5126,-1120,6500,-856,-1843,269,706,-1978,8156,-47,-199,-383,0,0,0,0,0,0,0,0,0,0,0,0
497,994,-5774,-1642,6092,-855,-1833,268,674,-1920,7878,-52,-201,-372,0,0,0,0,0,0,0,0,0,0,0,0
498,996,-5574,-1260,6618,-850,-1830,275,396,-1886,8050,-52,-198,-368,0,0,0,0,0,0,0,0,0,0,0,0
499,998,-5422,-1276,6258,-858,-1833,278,770,-2162,8234,-50,-198,-369,0,0,0,0,0,0,0,0,0,0,0,0
500,1000,-5442,-1096,6596,-862,-1841,275,798,-1804,7964,-43,-199,-374,0,0,0,0,0,0,0,0,0,0,0,0
501,1002,-5748,-742,6120,-865,-1843,273,578,-1774,8026,-40,-197,-376,0,0,0,0,0,0,0,0,0,0,0,0
502,1004,-5514,-1036,6188,-867,-1843,269,1018,-1652,8010,-34,-198,-382,0,0,0,0,0,0,0,0,0,0,0,0
503,1006,-5566,-788,6740,-864,-1844,269,964,-1776,7876,-34,-199,-381,0,0,0,0,0,0,0,0,0,0,0,0
504,1008,-5568,-1114,6408,-865,-1841,276,964,-2166,8048,-38,-196,-375,0,0,0,0,0,0,0,0,0,0,0,0
505,1010,-5626,-1418,6074,-867,-1844,277,682,-1832,7668,-36,-197,-370,0,0,0,0,0,0,0,0,0,0,0,0
506,1012,-5564,-920,6224,-870,-1854,274,288,-1948,7512,-38,-195,-375,0,0,0,0,0,0,0,0,0,0,0,0
507,1014,-5638,-932,6412,-863,-1859,277,410,-1938,7842,-35,-193,-380,0,0,0,0,0,0,0,0,0,0,0,0
508,1016,-5572,-1156,6660,-862,-1852,274,592,-2062,7696,-31,-193,-378,0,0,0,0,0,0,0,0,0,0,0,0
509,1018,-5628,-1278,6272,-864,-1841,275,1160,-1856,8268,-33,-195,-381,0,0,0,0,0,0,0,0,0,0,0,0
510,1020,-5494,-1576,6206,-867,-1844,274,752,-1884,7902,-37,-198,-390,0,0,0,0,0,0,0,0,0,0,0,0
511,1022,-5612,-1134,6294,-864,-1851,273,860,-1748,8012,-38,-194,-393,0,0,0,0,0,0,0,0,0,0,0,0
512,1024,-5522,-1234,6240,-866,-1851,273,484,-1646,7896,-34,-189,-391,0,0,0,0,0,0,0,0,0,0,0,0
513,1026,-5348,-1534,6264,-874,-1852,274,342,-1804,8006,-34,-189,-387,0,0,0,0,0,0,0,0,0,0,0,0
514,1028,-5692,-1064,5972,-872,-1848,273,772,-1604,7970,-36,-193,-386,0,0,0,0,0,0,0,0,0,0,0,0
515,1030,-5294,-1140,6330,-861,-1850,270,534,-1842,7832,-43,-196,-388,0,0,0,0,0,0,0,0,0,0,0,0
516,1032,-5536,-1250,6410,-858,-1846,268,496,-2044,8088,-39,-192,-396,0,0,0,0,0,0,0,0,0,0,0,0
517,1034,-5416,-1300,6428,-860,-1839,274,756,-1670,7756,-32,-189,-402,0,0,0,0,0,0,0,0,0,0,0,0
518,1036,-5438,-766,6456,-859,-1845,278,752,-1996,7786,-36,-192,-395,0,0,0,0,0,0,0,0,0,0,0,0
519,1038,-5422,-582,6080,-854,-1850,274,790,-1790,7848,-40,-198,-393,0,0,0,0,0,0,0,0,0,0,0,0
520,1040,-5376,-982,6278,-856,-1844,272,1020,-2064,7826,-35,-199,-395,0,0,0,0,0,0,0,0,0,0,0,0
521,1042,-5180,-918,6282,-867,-1843,270,910,-1844,7938,-36,-199,-394,0,0,0,0,0,0,0,0,0,0,0,0
522,1044,-5336,-1136,6320,-867,-1837,277,688,-1722,7964,-47,-201,-385,0,0,0,0,0,0,0,0,0,0,0,0
523,1046,-5530,-1098,6064,-864,-1840,274,1022,-1598,7794,-55,-205,-381,0,0,0,0,0,0,0,0,0,0,0,0
524,1048,-5690,-1244,6416,-861,-1847,271,704,-2042,7966,-51,-201,-376,0,0,0,0,0,0,0,0,0,0,0,0
525,1050,-5376,-1064,6220,-864,-1841,274,682,-1840,7966,-47,-196,-383,0,0,0,0,0,0,0,0,0,0,0,0
526,1052,-5716,-1180,6242,-866,-1834,278,1084,-1680,7998,-53,-202,-385,0,0,0,0,0,0,0,0,0,0,0,0
527,1054,-5652,-1124,5668,-859,-1835,282,634,-1912,7922,-58,-208,-384,0,0,0,0,0,0,0,0,0,0,0,0
528,1056,-5236,-858,6424,-858,-1834,287,710,-1552,8356,-63,-205,-378,0,0,0,0,0,0,0,0,0,0,0,0
529,1058,-5100,-808,6660,-859,-1836,290,964,-1900,8114,-58,-204,-371,0,0,0,0,0,0,0,0,0,0,0,0
530,1060,-5350,-696,6230,-863,-1835,288,1074,-1456,7804,-59,-210,-374,0,0,0,0,0,0,0,0,0,0,0,0
531,1062,-5078,-1114,6062,-860,-1837,293,710,-1580,7920,-68,-216,-367,0,0,0,0,0,0,0,0,0,0,0,0
532,1064,-5424,-864,6358,-853,-1839,291,728,-1662,8052,-79,-221,-358,0,0,0,0,0,0,0,0,0,0,0,0
533,1066,-5370,-878,6554,-853,-1838,290,968,-1996,7974,-79,-216,-351,0,0,0,0,0,0,0,0,0,0,0,0
534,1068,-5476,-1480,6114,-857,-1837,286,682,-1480,7790,-80,-216,-349,0,0,0,0,0,0,0,0,0,0,0,0
535,1070,-5606,-1274,6470,-858,-1841,288,726,-1714,7860,-84,-222,-354,0,0,0,0,0,0,0,0,0,0,0,0
536,1072,-5192,-1328,6628,-856,-1841,290,886,-1654,8116,-82,-224,-362,0,0,0,0,0,0,0,0,0,0,0,0
537,1074,-5486,-1326,6592,-866,-1844,297,872,-1702,8146,-71,-224,-358,0,0,0,0,0,0,0,0,0,0,0,0
538,1076,-5514,-1118,6500,-871,-1846,305,876,-1682,8172,-66,-223,-357,0,0,0,0,0,0,0,0,0,0,0,0
539,1078,-5418,-1384,6510,-872,-1844,305,890,-2164,7854,-67,-225,-363,0,0,0,0,0,0,0,0,0,0,0,0
540,1080,-5134,-856,6342,-869,-1845,297,952,-1926,7980,-62,-228,-365,0,0,0,0,0,0,0,0,0,0,0,0
541,1082,-5504,-1016,6442,-867,-1849,298,768,-2062,7914,-59,-232,-367,0,0,0,0,0,0,0,0,0,0,0,0
542,1084,-5366,-1398,6080,-874,-1848,298,908,-1814,7680,-66,-231,-367,0,0,0,0,0,0,0,0,0,0,0,0
543,1086,-5648,-1166,6440,-878,-1843,290,842,-1752,7972,-71,-232,-366,0,0,0,0,0,0,0,0,0,0,0,0
544,1088,-5394,-1234,6540,-874,-1852,284,634,-1716,8058,-71,-237,-360,0,0,0,0,0,0,0,0,0,0,0,0
545,1090,-5742,-1114,6534,-877,-1855,281,798,-2120,8222,-71,-235,-360,0,0,0,0,0,0,0,0,0,0,0,0
546,1092,-5726,-678,6446,-882,-1849,273,966,-1790,8058,-71,-229,-359,0,0,0,0,0,0,0,0,0,0,0,0
547,1094,-5700,-710,6462,-883,-1846,272,622,-1426,7908,-67,-227,-365,0,0,0,0,0,0,0,0,0,0,0,0
548,1096,-5610,-1030,6392,-879,-1850,270,942,-1878,7736,-63,-227,-375,0,0,0,0,0,0,0,0,0,0,0,0
549,1098,-5440,-952,6334,-882,-1860,273,866,-1876,7968,-63,-226,-370,0,0,0,0,0,0,0,0,0,0,0,0
550,1100,-5302,-1188,6192,-890,-1858,278,658,-1416,7782,-63,-218,-367,0,0,0,0,0,0,0,0,0,0,0,0
551,1102,-5846,-1202,6072,-893,-1859,283,742,-1746,7914,-60,-213,-364,0,0,0,0,0,0,0,0,0,0,0,0
552,1104,-5222,-1158,6304,-895,-1866,287,648,-1596,8356,-62,-210,-369,0,0,0,0,0,0,0,0,0,0,0,0
553,1106,-5504,-1572,6550,-895,-1866,289,728,-1912,8078,-67,-210,-374,0,0,0,0,0,0,0,0,0,0,0,0
554,1108,-5284,-1008,6262,-890,-1868,291,820,-1746,7870,-69,-208,-374,0,0,0,0,0,0,0,0,0,0,0,0
555,1110,-5372,-1288,6540,-888,-1864,293,634,-1788,7860,-68,-209,-378,0,0,0,0,0,0,0,0,0,0,0,0
556,1112,-5434,-1176,6370,-887,-1865,298,532,-1908,8112,-72,-213,-386,0,0,0,0,0,0,0,0,0,0,0,0
557,1114,-5490,-1110,6488,-883,-1873,299,972,-1560,7706,-69,-213,-386,0,0,0,0,0,0,0,0,0,0,0,0
558,1116,-5886,-1488,6466,-886,-1871,297,874,-1848,7694,-67,-209,-380,0,0,0,0,0,0,0,0,0,0,0,0
559,1118,-5494,-1008,6758,-888,-1873,294,792,-1848,8066,-65,-208,-382,0,0,0,0,0,0,0,0,0,0,0,0
560,1120,-5570,-1148,6414,-882,-1874,297,964,-1926,7480,-65,-206,-383,0,0,0,0,0,0,0,0,0,0,0,0
561,1122,-5440,-862,6340,-880,-1881,299,602,-2328,7900,-65,-209,-398,0,0,0,0,0,0,0,0,0,0,0,0
562,1124,-5588,-1316,6690,-880,-1876,295,828,-1960,8022,-63,-208,-397,0,0,0,0,0,0,0,0,0,0,0,0
563,1126,-5344,-840,6218,-882,-1868,295,694,-2210,7640,-59,-199,-391,0,0,0,0,0,0,0,0,0,0,0,0
564,1128,-5294,-1146,5962,-882,-1871,303,628,-1606,7990,-59,-198,-390,0,0,0,0,0,0,0,0,0,0,0,0
565,1130,-5498,-1232,6214,-874,-1872,298,800,-1834,7988,-60,-201,-392,0,0,0,0,0,0,0,0,0,0,0,0
566,1132,-5474,-640,6322,-878,-1862,296,648,-1702,7766,-68,-202,-387,0,0,0,0,0,0,0,0,0,0,0,0
567,1134,-5644,-1336,6430,-883,-1856,292,500,-1790,8110,-67,-205,-384,0,0,0,0,0,0,0,0,0,0,0,0
568,1136,-5504,-1042,6284,-875,-1857,289,546,-1916,7786,-68,-207,-381,0,0,0,0,0,0,0,0,0,0,0,0
569,1138,-5598,-980,6104,-875,-1853,294,848,-1750,8120,-72,-215,-383,0,0,0,0,0,0,0,0,0,0,0,0
570,1140,-5416,-1204,6286,-872,-1850,294,408,-2078,8142,-72,-222,-383,0,0,0,0,0,0,0,0,0,0,0,0
571,1142,-5766,-1066,6454,-879,-1848,289,534,-1864,7904,-77,-221,-376,0,0,0,0,0,0,0,0,0,0,0,0
572,1144,-5206,-972,6300,-889,-1852,283,688,-1912,7896,-83,-223,-374,0,0,0,0,0,0,0,0,0,0,0,0
573,1146,-5206,-972,6300,-889,-1852,283,686,-1478,7654,-80,-224,-377,0,0,0,0,0,0,0,0,0,0,0,0
574,1148,-5208,-1016,6208,-875,-1854,288,1052,-1834,8316,-80,-224,-374,0,0,0,0,0,0,0,0,0,0,0,0
575,1150,-5664,-850,6758,-883,-1843,284,970,-1754,8226,-82,-232,-370,0,0,0,0,0,0,0,0,0,0,0,0
576,1152,-5252,-1264,6160,-887,-1841,283,1048,-1664,7854,-79,-229,-375,0,0,0,0,0,0,0,0,0,0,0,0
577,1154,-5602,-990,6286,-883,-1847,281,812,-2046,7944,-83,-231,-379,0,0,0,0,0,0,0,0,0,0,0,0
578,1156,-5610,-1068,6276,-881,-1851,288,796,-2140,7494,-84,-235,-374,0,0,0,0,0,0,0,0,0,0,0,0
579,1158,-5202,-962,6590,-879,-1853,284,292,-1426,7902,-83,-233,-375,0,0,0,0,0,0,0,0,0,0,0,0
580,1160,-5428,-810,6708,-880,-1853,280,1002,-1824,7946,-87,-234,-369,0,0,0,0,0,0,0,0,0,0,0,0
581,1162,-5596,-812,6688,-877,-1856,275,972,-1904,8258,-93,-234,-364,0,0,0,0,0,0,0,0,0,0,0,0
582,1164,-5494,-1322,6116,-871,-1857,276,732,-2100,7920,-99,-235,-362,0,0,0,0,0,0,0,0,0,0,0,0
583,1166,-5138,-1122,6260,-873,-1854,281,486,-1958,7850,-97,-235,-363,0,0,0,0,0,0,0,0,0,0,0,0
584,1168,-5630,-1120,6194,-877,-1851,279,670,-1652,7956,-99,-236,-356,0,0,0,0,0,0,0,0,0,0,0,0
585,1170,-5812,-1336,6480,-873,-1848,278,648,-1872,8184,-96,-237,-359,0,0,0,0,0,0,0,0,0,0,0,0
586,1172,-5544,-930,6384,-871,-1854,275,850,-1670,7904,-98,-235,-357,0,0,0,0,0,0,0,0,0,0,0,0
587,1174,-5604,-1140,6674,-879,-1855,276,792,-1656,7934,-95,-234,-358,0,0,0,0,0,0,0,0,0,0,0,0
588,1176,-5180,-1124,5874,-884,-1847,284,1020,-1744,7814,-87,-230,-362,0,0,0,0,0,0,0,0,0,0,0,0
589,1178,-5874,-960,6256,-886,-1839,285,764,-1632,8010,-84,-229,-361,0,0,0,0,0,0,0,0,0,0,0,0
590,1180,-5616,-1372,6198,-887,-1842,288,930,-1564,7798,-85,-226,-361,0,0,0,0,0,0,0,0,0,0,0,0
591,1182,-5472,-1090,6224,-889,-1854,288,508,-1846,7928,-80,-225,-364,0,0,0,0,0,0,0,0,0,0,0,0
592,1184,-5622,-986,6524,-888,-1855,284,1048,-2204,7936,-77,-226,-362,0,0,0,0,0,0,0,0,0,0,0,0
593,1186,-5388,-1498,5996,-887,-1856,282,434,-1918,8312,-72,-224,-357,0,0,0,0,0,0,0,0,0,0,0,0
594,1188,-5342,-1254,6558,-881,-1866,282,570,-1696,7772,-72,-221,-361,0,0,0,0,0,0,0,0,0,0,0,0
595,1190,-5540,-966,6322,-876,-1862,283,638,-2092,7968,-70,-219,-360,0,0,0,0,0,0,0,0,0,0,0,0
596,1192,-5508,-1050,6254,-882,-1855,287,806,-2070,7704,-62,-220,-360,0,0,0,0,0,0,0,0,0,0,0,0
597,1194,-5592,-1232,6322,-888,-1852,289,284,-1742,7636,-58,-223,-360,0,0,0,0,0,0,0,0,0,0,0,0
598,1196,-5316,-1144,6452,-886,-1859,291,1018,-1830,8136,-55,-223,-355,0,0,0,0,0,0,0,0,0,0,0,0
599,1198,-5076,-788,6230,-887,-1869,289,1144,-1680,7606,-57,-225,-357,0,0,0,0,0,0,0,0,0,0,0,0
600,1200,-5348,-1188,6112,-886,-1867,289,712,-1794,8074,-55,-222,-359,0,0,0,0,0,0,0,0,0,0,0,0
601,1202,-5650,-1496,6220,-884,-1859,291,978,-1626,8020,-52,-212,-360,0,0,0,0,0,0,0,0,0,0,0,0
602,1204,-5434,-1070,6208,-878,-1859,293,960,-1672,7712,-55,-207,-364,0,0,0,0,0,0,0,0,0,0,0,0
603,1206,-5500,-1132,6420,-876,-1861,287,884,-1652,7586,-52,-210,-362,0,0,0,0,0,0,0,0,0,0,0,0
604,1208,-5520,-1348,6454,-877,-1858,286,572,-1996,7822,-49,-213,-369,0,0,0,0,0,0,0,0,0,0,0,0
605,1210,-5242,-1066,6024,-876,-1854,285,1268,-2066,7918,-49,-214,-369,0,0,0,0,0,0,0,0,0,0,0,0
606,1212,-5714,-1522,6416,-873,-1854,288,1180,-1634,7972,-49,-216,-373,0,0,0,0,0,0,0,0,0,0,0,0
607,1214,-5372,-872,6274,-863,-1859,291,1106,-1598,7696,-52,-217,-373,0,0,0,0,0,0,0,0,0,0,0,0
608,1216,-5622,-1498,6200,-864,-1852,293,368,-2026,7746,-55,-217,-366,0,0,0,0,0,0,0,0,0,0,0,0
609,1218,-5396,-1052,6336,-866,-1845,294,698,-2170,7944,-53,-219,-363,0,0,0,0,0,0,0,0,0,0,0,0
610,1220,-5390,-1110,5826,-863,-1848,292,602,-1532,7994,-51,-217,-362,0,0,0,0,0,0,0,0,0,0,0,0
611,1222,-5382,-1376,5932,-863,-1849,292,958,-1782,7960,-56,-219,-365,0,0,0,0,0,0,0,0,0,0,0,0
612,1224,-5236,-818,6428,-860,-1847,292,358,-1834,8030,-61,-225,-366,0,0,0,0,0,0,0,0,0,0,0,0
613,1226,-5592,-1112,6468,-859,-1841,294,984,-2046,7938,-56,-222,-369,0,0,0,0,0,0,0,0,0,0,0,0
614,1228,-5368,-904,6404,-860,-1829,292,1178,-1612,7944,-54,-225,-376,0,0,0,0,0,0,0,0,0,0,0,0
615,1230,-5662,-908,6192,-860,-1829,289,618,-1550,7962,-58,-223,-375,0,0,0,0,0,0,0,0,0,0,0,0
616,1232,-5862,-838,6262,-859,-1838,292,1038,-1902,7924,-55,-223,-373,0,0,0,0,0,0,0,0,0,0,0,0
617,1234,-5780,-946,5672,-867,-1837,293,766,-1856,8134,-51,-221,-371,0,0,0,0,0,0,0,0,0,0,0,0
618,1236,-5458,-1360,6002,-865,-1834,293,1286,-1832,7834,-51,-221,-368,0,0,0,0,0,0,0,0,0,0,0,0
619,1238,-5638,-914,6250,-858,-1843,291,666,-1804,8004,-49,-225,-364,0,0,0,0,0,0,0,0,0,0,0,0
620,1240,-5192,-990,6078,-857,-1846,295,746,-1882,7892,-44,-213,-368,0,0,0,0,0,0,0,0,0,0,0,0
621,1242,-5770,-864,6418,-867,-1835,298,1164,-1680,7672,-40,-208,-371,0,0,0,0,0,0,0,0,0,0,0,0
622,1244,-5618,-1214,6438,-864,-1833,291,850,-1394,8128,-41,-212,-365,0,0,0,0,0,0,0,0,0,0,0,0
623,1246,-5496,-1016,6384,-866,-1836,293,962,-1610,8124,-45,-213,-358,0,0,0,0,0,0,0,0,0,0,0,0
624,1248,-5628,-1168,6318,-863,-1849,296,840,-1626,7972,-40,-208,-358,0,0,0,0,0,0,0,0,0,0,0,0
625,1250,-5436,-1094,6070,-863,-1852,296,656,-1756,8060,-41,-211,-355,0,0,0,0,0,0,0,0,0,0,0,0
626,1252,-5792,-980,6410,-863,-1849,297,660,-1958,7702,-44,-214,-349,0,0,0,0,0,0,0,0,0,0,0,0
627,1254,-5680,-1052,6502,-856,-1852,301,1008,-1750,8178,-45,-212,-345,0,0,0,0,0,0,0,0,0,0,0,0
628,1256,-5488,-1046,6502,-855,-1861,297,682,-1964,8014,-43,-212,-350,0,0,0,0,0,0,0,0,0,0,0,0
629,1258,-5706,-974,6202,-861,-1865,294,714,-2132,8054,-42,-211,-352,0,0,0,0,0,0,0,0,0,0,0,0
630,1260,-5588,-888,6218,-871,-1861,296,848,-1648,7814,-50,-217,-345,0,0,0,0,0,0,0,0,0,0,0,0
631,1262,-5550,-1170,6000,-872,-1871,297,1268,-1876,7978,-53,-217,-354,0,0,0,0,0,0,0,0,0,0,0,0
632,1264,-5472,-1404,6522,-872,-1878,293,896,-1908,7892,-43,-211,-361,0,0,0,0,0,0,0,0,0,0,0,0
633,1266,-5482,-1150,6182,-874,-1878,288,840,-1582,7916,-43,-207,-361,0,0,0,0,0,0,0,0,0,0,0,0
634,1268,-5720,-1174,6524,-876,-1870,283,978,-1484,7870,-45,-208,-364,0,0,0,0,0,0,0,0,0,0,0,0
635,1270,-5524,-1478,5860,-873,-1865,285,846,-1690,8066,-47,-212,-366,0,0,0,0,0,0,0,0,0,0,0,0
636,1272,-6120,-944,6614,-873,-1865,287,1076,-1804,7968,-43,-212,-372,0,0,0,0,0,0,0,0,0,0,0,0
637,1274,-5264,-1072,6578,-869,-1866,291,1196,-1692,8090,-44,-212,-376,0,0,0,0,0,0,0,0,0,0,0,0
638,1276,-5344,-1394,6136,-872,-1860,285,866,-1688,8054,-47,-214,-382,0,0,0,0,0,0,0,0,0,0,0,0
639,1278,-5364,-1116,6464,-871,-1858,280,964,-2126,8148,-52,-219,-380,0,0,0,0,0,0,0,0,0,0,0,0
640,1280,-5646,-1368,6654,-865,-1857,281,758,-1980,7864,-53,-213,-381,0,0,0,0,0,0,0,0,0,0,0,0
641,1282,-5294,-922,6218,-869,-1852,277,792,-2008,8084,-47,-212,-383,0,0,0,0,0,0,0,0,0,0,0,0
642,1284,-5288,-1234,6718,-874,-1850,281,844,-1816,7624,-44,-207,-393,0,0,0,0,0,0,0,0,0,0,0,0
643,1286,-5704,-1026,6176,-872,-1854,286,840,-1934,7788,-42,-209,-391,0,0,0,0,0,0,0,0,0,0,0,0
644,1288,-5022,-1118,6352,-867,-1858,294,854,-1938,7890,-37,-213,-390,0,0,0,0,0,0,0,0,0,0,0,0
645,1290,-5402,-1300,6348,-867,-1861,294,842,-1940,7858,-36,-213,-388,0,0,0,0,0,0,0,0,0,0,0,0
646,1292,-5412,-1212,5910,-874,-1851,300,962,-1532,8226,-47,-209,-387,0,0,0,0,0,0,0,0,0,0,0,0
647,1294,-5678,-1020,6308,-874,-1848,298,354,-1598,7998,-47,-204,-387,0,0,0,0,0,0,0,0,0,0,0,0
648,1296,-5460,-1276,6008,-870,-1850,297,376,-1676,7866,-50,-201,-385,0,0,0,0,0,0,0,0,0,0,0,0
649,1298,-5458,-1042,6484,-869,-1857,298,476,-1642,8130,-48,-196,-390,0,0,0,0,0,0,0,0,0,0,0,0
650,1300,-5408,-1434,6362,-873,-1858,306,608,-1574,7862,-47,-194,-397,0,0,0,0,0,0,0,0,0,0,0,0
651,1302,-5706,-1204,6450,-874,-1861,307,610,-2152,8018,-45,-196,-398,0,0,0,0,0,0,0,0,0,0,0,0
652,1304,-5318,-1046,6528,-875,-1871,310,768,-1816,7816,-45,-201,-400,0,0,0,0,0,0,0,0,0,0,0,0
653,1306,-5792,-982,6712,-876,-1874,308,432,-1914,8126,-47,-203,-403,0,0,0,0,0,0,0,0,0,0,0,0
654,1308,-5628,-1214,6094,-874,-1881,304,852,-1988,7902,-35,-205,-409,0,0,0,0,0,0,0,0,0,0,0,0
655,1310,-5434,-1212,6512,-878,-1881,301,800,-1302,7954,-33,-206,-412,0,0,0,0,0,0,0,0,0,0,0,0
656,1312,-5570,-1232,6644,-878,-1881,302,834,-2050,8002,-37,-205,-409,0,0,0,0,0,0,0,0,0,0,0,0
657,1314,-5640,-1024,6430,-874,-1880,296,696,-1786,7968,-42,-213,-405,0,0,0,0,0,0,0,0,0,0,0,0
658,1316,-5670,-1090,6228,-870,-1884,294,780,-1880,7984,-44,-212,-396,0,0,0,0,0,0,0,0,0,0,0,0
659,1318,-5404,-1242,6380,-874,-1880,291,606,-1882,7964,-47,-212,-393,0,0,0,0,0,0,0,0,0,0,0,0
660,1320,-5634,-1176,6222,-871,-1880,285,434,-1964,7660,-48,-216,-392,0,0,0,0,0,0,0,0,0,0,0,0
661,1322,-5398,-902,6394,-867,-1886,276,700,-2176,7838,-55,-210,-398,0,0,0,0,0,0,0,0,0,0,0,0
662,1324,-5286,-1154,6406,-871,-1882,273,762,-1728,7990,-57,-207,-400,0,0,0,0,0,0,0,0,0,0,0,0
663,1326,-5562,-832,6238,-873,-1879,272,902,-1656,7846,-55,-209,-399,0,0,0,0,0,0,0,0,0,0,0,0
664,1328,-5562,-832,6238,-873,-1879,272,458,-1976,7718,-53,-208,-403,0,0,0,0,0,0,0,0,0,0,0,0
665,1330,-5390,-920,6454,-872,-1892,279,1022,-2336,7884,-58,-208,-400,0,0,0,0,0,0,0,0,0,0,0,0
666,1332,-5372,-714,6456,-872,-1886,275,978,-2094,7924,-68,-210,-389,0,0,0,0,0,0,0,0,0,0,0,0
667,1334,-5574,-908,6452,-877,-1889,273,956,-1870,7762,-63,-209,-390,0,0,0,0,0,0,0,0,0,0,0,0
668,1336,-5298,-1272,6208,-873,-1884,275,590,-1714,8008,-66,-206,-388,0,0,0,0,0,0,0,0,0,0,0,0
669,1338,-5238,-1194,6512,-864,-1883,281,792,-1980,7736,-69,-205,-386,0,0,0,0,0,0,0,0,0,0,0,0
670,1340,-5428,-1084,6714,-870,-1881,284,618,-1792,7732,-64,-197,-383,0,0,0,0,0,0,0,0,0,0,0,0
671,1342,-5372,-1004,6082,-877,-1883,289,444,-2020,7532,-65,-197,-376,0,0,0,0,0,0,0,0,0,0,0,0
672,1344,-5516,-1120,6538,-874,-1879,290,396,-2060,8132,-67,-199,-375,0,0,0,0,0,0,0,0,0,0,0,0
673,1346,-5514,-974,6342,-870,-1877,281,724,-1674,7942,-62,-199,-376,0,0,0,0,0,0,0,0,0,0,0,0
674,1348,-5546,-1152,6308,-871,-1877,277,1004,-1770,7976,-59,-198,-379,0,0,0,0,0,0,0,0,0,0,0,0
675,1350,-5592,-926,6392,-874,-1877,273,698,-1896,7584,-66,-196,-374,0,0,0,0,0,0,0,0,0,0,0,0
676,1352,-5560,-1174,6326,-872,-1877,273,774,-1842,7860,-73,-198,-369,0,0,0,0,0,0,0,0,0,0,0,0
677,1354,-5076,-1082,6166,-867,-1874,277,646,-1182,8202,-74,-199,-364,0,0,0,0,0,0,0,0,0,0,0,0
678,1356,-5574,-996,6398,-865,-1880,277,832,-1698,8004,-72,-210,-362,0,0,0,0,0,0,0,0,0,0,0,0
679,1358,-5446,-790,5920,-868,-1877,273,804,-1592,8070,-76,-210,-359,0,0,0,0,0,0,0,0,0,0,0,0
680,1360,-5332,-1166,6438,-869,-1874,270,500,-1924,7952,-81,-208,-352,0,0,0,0,0,0,0,0,0,0,0,0
681,1362,-5642,-1168,6128,-866,-1869,270,740,-2098,8044,-85,-217,-344,0,0,0,0,0,0,0,0,0,0,0,0
682,1364,-5370,-1160,6584,-862,-1871,274,542,-1742,8064,-86,-222,-349,0,0,0,0,0,0,0,0,0,0,0,0
683,1366,-5288,-1056,6360,-870,-1873,279,932,-1900,7936,-83,-222,-352,0,0,0,0,0,0,0,0,0,0,0,0
684,1368,-5558,-1398,6108,-879,-1871,279,898,-1604,7852,-80,-223,-359,0,0,0,0,0,0,0,0,0,0,0,0
685,1370,-5550,-1042,6302,-877,-1880,283,802,-2000,7898,-80,-222,-357,0,0,0,0,0,0,0,0,0,0,0,0
686,1372,-5546,-1186,6388,-870,-1880,285,496,-1650,7886,-79,-222,-360,0,0,0,0,0,0,0,0,0,0,0,0
687,1374,-5540,-1238,6194,-869,-1877,277,246,-1826,7696,-81,-223,-363,0,0,0,0,0,0,0,0,0,0,0,0
688,1376,-5266,-812,6310,-865,-1867,276,694,-1992,8114,-80,-218,-358,0,0,0,0,0,0,0,0,0,0,0,0
689,1378,-5200,-962,6116,-861,-1865,283,706,-2032,7930,-78,-218,-347,0,0,0,0,0,0,0,0,0,0,0,0
690,1380,-5458,-920,6080,-861,-1873,286,984,-1968,8004,-72,-220,-349,0,0,0,0,0,0,0,0,0,0,0,0
691,1382,-5572,-1454,6120,-867,-1878,285,982,-1834,7992,-69,-218,-345,0,0,0,0,0,0,0,0,0,0,0,0
692,1384,-5680,-1132,6256,-872,-1868,285,1112,-1820,7866,-67,-220,-348,0,0,0,0,0,0,0,0,0,0,0,0
693,1386,-5648,-1266,6602,-868,-1861,288,426,-1546,8028,-65,-220,-358,0,0,0,0,0,0,0,0,0,0,0,0
694,1388,-5696,-946,6278,-858,-1861,287,618,-1546,8176,-59,-223,-360,0,0,0,0,0,0,0,0,0,0,0,0
695,1390,-5486,-1158,6264,-860,-1856,291,468,-2014,7918,-58,-222,-356,0,0,0,0,0,0,0,0,0,0,0,0
696,1392,-5090,-1156,6726,-867,-1850,291,752,-1662,8094,-51,-217,-362,0,0,0,0,0,0,0,0,0,0,0,0
697,1394,-5348,-1136,6400,-870,-1841,299,786,-1692,7666,-47,-212,-369,0,0,0,0,0,0,0,0,0,0,0,0
698,1396,-5414,-1156,6326,-868,-1853,303,612,-1828,7838,-52,-211,-368,0,0,0,0,0,0,0,0,0,0,0,0
699,1398,-5744,-1138,6414,-874,-1862,299,730,-1766,8002,-54,-216,-366,0,0,0,0,0,0,0,0,0,0,0,0
700,1400,-5354,-1238,6204,-873,-1857,296,964,-2146,7720,-60,-210,-368,0,0,0,0,0,0,0,0,0,0,0,0
701,1402,-5336,-1290,6590,-873,-1847,287,1186,-1946,8198,-62,-206,-373,0,0,0,0,0,0,0,0,0,0,0,0
702,1404,-5610,-890,6224,-868,-1853,285,1046,-1718,8446,-53,-207,-369,0,0,0,0,0,0,0,0,0,0,0,0
703,1406,-5512,-924,6784,-873,-1859,285,822,-1698,8302,-56,-212,-367,0,0,0,0,0,0,0,0,0,0,0,0
704,1408,-5708,-1048,6446,-880,-1860,286,730,-1898,7838,-56,-215,-367,0,0,0,0,0,0,0,0,0,0,0,0
705,1410,-5486,-868,6502,-882,-1855,285,916,-1684,7998,-52,-212,-369,0,0,0,0,0,0,0,0,0,0,0,0
706,1412,-5382,-1264,6372,-878,-1853,284,1164,-1880,7866,-51,-215,-366,0,0,0,0,0,0,0,0,0,0,0,0
707,1414,-5260,-932,6274,-873,-1854,282,950,-1878,7770,-49,-221,-369,0,0,0,0,0,0,0,0,0,0,0,0
708,1416,-5066,-682,6210,-879,-1853,286,386,-1742,7816,-51,-221,-369,0,0,0,0,0,0,0,0,0,0,0,0
709,1418,-5488,-970,5948,-888,-1852,288,326,-1820,7726,-46,-217,-375,0,0,0,0,0,0,0,0,0,0,0,0
710,1420,-5464,-910,6094,-883,-1859,282,650,-1476,7940,-44,-212,-381,0,0,0,0,0,0,0,0,0,0,0,0
711,1422,-5594,-1196,6782,-884,-1867,277,544,-1774,7874,-39,-207,-382,0,0,0,0,0,0,0,0,0,0,0,0
712,1424,-5310,-1162,6632,-885,-1872,278,438,-2052,8132,-29,-205,-383,0,0,0,0,0,0,0,0,0,0,0,0
713,1426,-5478,-992,6106,-886,-1859,280,524,-2100,8120,-24,-205,-386,0,0,0,0,0,0,0,0,0,0,0,0
714,1428,-5546,-1290,6370,-886,-1863,283,596,-1568,8138,-28,-204,-385,0,0,0,0,0,0,0,0,0,0,0,0
715,1430,-5492,-1178,6318,-874,-1861,280,696,-1922,7838,-34,-207,-385,0,0,0,0,0,0,0,0,0,0,0,0
716,1432,-5670,-1082,6526,-870,-1857,277,902,-1884,8022,-27,-208,-384,0,0,0,0,0,0,0,0,0,0,0,0
717,1434,-5284,-1338,6516,-869,-1854,275,630,-1606,8026,-16,-204,-383,0,0,0,0,0,0,0,0,0,0,0,0
718,1436,-5766,-936,6324,-871,-1859,277,570,-2138,8156,-19,-203,-384,0,0,0,0,0,0,0,0,0,0,0,0
719,1438,-5218,-1082,6214,-862,-1855,283,722,-1400,7814,-22,-205,-380,0,0,0,0,0,0,0,0,0,0,0,0
720,1440,-5950,-1008,6690,-862,-1852,278,530,-1728,8110,-20,-202,-382,0,0,0,0,0,0,0,0,0,0,0,0
721,1442,-5688,-1122,6596,-865,-1847,280,912,-2028,8056,-15,-203,-392,0,0,0,0,0,0,0,0,0,0,0,0
722,1444,-5624,-1150,6332,-869,-1844,286,528,-1378,7968,-14,-204,-396,0,0,0,0,0,0,0,0,0,0,0,0
723,1446,-5438,-934,6522,-869,-1840,285,850,-1360,8060,-16,-206,-395,0,0,0,0,0,0,0,0,0,0,0,0
724,1448,-5240,-1074,6412,-859,-1838,284,566,-1536,8008,-13,-208,-398,0,0,0,0,0,0,0,0,0,0,0,0
725,1450,-5444,-1246,6632,-860,-1838,283,524,-1682,7918,-15,-208,-400,0,0,0,0,0,0,0,0,0,0,0,0
726,1452,-5414,-998,6684,-858,-1833,285,400,-2378,7920,-17,-210,-398,0,0,0,0,0,0,0,0,0,0,0,0
727,1454,-5236,-1278,6348,-850,-1837,283,854,-1662,7810,-16,-208,-396,0,0,0,0,0,0,0,0,0,0,0,0
728,1456,-5268,-1278,6562,-855,-1832,278,696,-2394,8094,-15,-208,-400,0,0,0,0,0,0,0,0,0,0,0,0
729,1458,-5562,-1006,6374,-860,-1835,277,700,-1548,8310,-18,-205,-397,0,0,0,0,0,0,0,0,0,0,0,0
730,1460,-5598,-988,6208,-861,-1841,274,436,-1570,8090,-21,-204,-397,0,0,0,0,0,0,0,0,0,0,0,0
731,1462,-5264,-1024,6380,-861,-1848,280,542,-1572,8042,-23,-205,-395,0,0,0,0,0,0,0,0,0,0,0,0
732,1464,-5542,-1126,6436,-861,-1852,282,554,-2156,8114,-14,-206,-394,0,0,0,0,0,0,0,0,0,0,0,0
733,1466,-5564,-1036,6754,-868,-1849,275,1004,-2000,8020,-17,-204,-396,0,0,0,0,0,0,0,0,0,0,0,0
734,1468,-5530,-1018,6076,-875,-1851,273,814,-1870,8234,-19,-209,-404,0,0,0,0,0,0,0,0,0,0,0,0
735,1470,-5512,-1230,6336,-875,-1854,273,534,-1904,8056,-22,-211,-405,0,0,0,0,0,0,0,0,0,0,0,0
736,1472,-5408,-1516,6424,-875,-1865,274,860,-1676,7586,-23,-209,-402,0,0,0,0,0,0,0,0,0,0,0,0
737,1474,-5606,-1118,6464,-879,-1865,277,768,-1966,8010,-24,-206,-399,0,0,0,0,0,0,0,0,0,0,0,0
738,1476,-5396,-1136,6582,-882,-1848,276,526,-1762,7940,-32,-203,-393,0,0,0,0,0,0,0,0,0,0,0,0
739,1478,-5362,-1194,6376,-880,-1846,278,384,-2022,7938,-36,-206,-389,0,0,0,0,0,0,0,0,0,0,0,0
740,1480,-5484,-952,6326,-873,-1848,281,738,-1696,7652,-36,-209,-382,0,0,0,0,0,0,0,0,0,0,0,0
741,1482,-5496,-1414,6076,-875,-1853,285,1264,-1772,8034,-28,-204,-379,0,0,0,0,0,0,0,0,0,0,0,0
742,1484,-5466,-1258,6392,-881,-1848,291,824,-1838,8254,-25,-201,-381,0,0,0,0,0,0,0,0,0,0,0,0
743,1486,-5336,-1006,6346,-879,-1851,290,624,-1916,7928,-31,-199,-383,0,0,0,0,0,0,0,0,0,0,0,0
744,1488,-5836,-1020,6138,-874,-1856,287,598,-2028,8120,-28,-201,-380,0,0,0,0,0,0,0,0,0,0,0,0
745,1490,-5526,-1262,6664,-869,-1861,285,366,-1558,8034,-36,-203,-378,0,0,0,0,0,0,0,0,0,0,0,0
746,1492,-5324,-922,6408,-869,-1854,282,914,-1752,7802,-38,-208,-378,0,0,0,0,0,0,0,0,0,0,0,0
747,1494,-5566,-1034,6198,-868,-1853,288,1032,-1458,8024,-36,-210,-378,0,0,0,0,0,0,0,0,0,0,0,0
748,1496,-5512,-1104,6844,-868,-1856,296,590,-2044,8240,-30,-210,-379,0,0,0,0,0,0,0,0,0,0,0,0
749,1498,-5410,-1160,6734,-862,-1848,299,652,-1732,8042,-31,-212,-380,0,0,0,0,0,0,0,0,0,0,0,0
750,1500,-5754,-1270,6194,-867,-1848,295,670,-1322,7980,-34,-216,-384,0,0,0,0,0,0,0,0,0,0,0,0
751,1502,-5694,-846,6270,-872,-1842,292,710,-1778,8052,-27,-215,-386,0,0,0,0,0,0,0,0,0,0,0,0
752,1504,-5554,-1162,6436,-870,-1848,289,796,-1972,7906,-21,-213,-385,0,0,0,0,0,0,0,0,0,0,0,0
753,1506,-5402,-1240,6400,-867,-1860,289,1272,-1808,8064,-22,-208,-388,0,0,0,0,0,0,0,0,0,0,0,0
754,1508,-5828,-990,6456,-870,-1855,291,436,-1896,8254,-19,-204,-394,0,0,0,0,0,0,0,0,0,0,0,0
755,1510,-5336,-1500,6292,-873,-1852,287,1140,-1978,8026,-21,-204,-391,0,0,0,0,0,0,0,0,0,0,0,0
756,1512,-5400,-1166,6012,-873,-1857,284,882,-1912,7714,-26,-206,-391,0,0,0,0,0,0,0,0,0,0,0,0
757,1514,-5528,-1190,6378,-873,-1851,279,1140,-1694,7898,-22,-204,-396,0,0,0,0,0,0,0,0,0,0,0,0
758,1516,-5282,-998,6662,-879,-1846,283,750,-1918,8036,-22,-199,-392,0,0,0,0,0,0,0,0,0,0,0,0
759,1518,-5282,-998,6662,-879,-1846,283,1076,-2004,7942,-24,-206,-391,0,0,0,0,0,0,0,0,0,0,0,0
760,1520,-5482,-1146,6132,-879,-1862,282,1096,-1870,7930,-32,-208,-387,0,0,0,0,0,0,0,0,0,0,0,0
761,1522,-5500,-1168,6778,-869,-1877,282,718,-1854,7744,-35,-208,-382,0,0,0,0,0,0,0,0,0,0,0,0
762,1524,-5822,-1156,6398,-870,-1872,282,920,-1918,8282,-33,-201,-377,0,0,0,0,0,0,0,0,0,0,0,0
763,1526,-5372,-788,5888,-873,-1860,286,712,-1742,7914,-35,-203,-372,0,0,0,0,0,0,0,0,0,0,0,0
764,1528,-5520,-1112,6448,-872,-1864,286,1008,-1912,8196,-40,-213,-364,0,0,0,0,0,0,0,0,0,0,0,0
765,1530,-5268,-898,6480,-870,-1871,280,704,-1588,8104,-48,-213,-358,0,0,0,0,0,0,0,0,0,0,0,0
766,1532,-5152,-970,6340,-880,-1867,278,972,-1448,7602,-44,-208,-367,0,0,0,0,0,0,0,0,0,0,0,0
767,1534,-5538,-1294,6428,-880,-1862,283,740,-1720,8066,-44,-206,-373,0,0,0,0,0,0,0,0,0,0,0,0
768,1536,-4964,-1174,6440,-877,-1863,284,876,-1744,7802,-38,-205,-375,0,0,0,0,0,0,0,0,0,0,0,0
769,1538,-5440,-1192,6332,-875,-1861,282,670,-1842,7880,-40,-201,-374,0,0,0,0,0,0,0,0,0,0,0,0
770,1540,-5382,-1210,6328,-875,-1864,278,820,-1966,7876,-42,-206,-374,0,0,0,0,0,0,0,0,0,0,0,0
771,1542,-5634,-1220,6140,-883,-1863,280,930,-2144,7916,-36,-210,-371,0,0,0,0,0,0,0,0,0,0,0,0
772,1544,-5620,-1442,6082,-877,-1865,287,488,-2098,7798,-38,-212,-375,0,0,0,0,0,0,0,0,0,0,0,0
773,1546,-5170,-1206,6174,-876,-1865,285,476,-1714,8042,-41,-209,-379,0,0,0,0,0,0,0,0,0,0,0,0
774,1548,-5514,-978,6266,-873,-1859,292,848,-2098,8004,-38,-212,-386,0,0,0,0,0,0,0,0,0,0,0,0
775,1550,-5586,-1022,6792,-882,-1851,291,732,-1728,7978,-43,-216,-387,0,0,0,0,0,0,0,0,0,0,0,0
776,1552,-5240,-968,6284,-885,-1851,291,784,-1780,7668,-46,-222,-383,0,0,0,0,0,0,0,0,0,0,0,0
777,1554,-5240,-968,6284,-885,-1851,291,942,-2014,7694,-47,-223,-378,0,0,0,0,0,0,0,0,0,0,0,0
778,1556,-5568,-1266,6100,-885,-1856,295,624,-1862,7818,-51,-221,-371,0,0,0,0,0,0,0,0,0,0,0,0
779,1558,-5188,-1168,6390,-889,-1861,292,594,-1968,8120,-48,-217,-372,0,0,0,0,0,0,0,0,0,0,0,0
780,1560,-5434,-974,6708,-889,-1859,285,752,-2022,7626,-49,-222,-371,0,0,0,0,0,0,0,0,0,0,0,0
781,1562,-5190,-1206,6708,-889,-1859,287,796,-1698,7786,-46,-223,-372,0,0,0,0,0,0,0,0,0,0,0,0
782,1564,-5632,-1236,6222,-881,-1869,290,970,-1962,7786,-41,-219,-372,0,0,0,0,0,0,0,0,0,0,0,0
783,1566,-5514,-1224,6120,-883,-1878,288,630,-2192,7998,-44,-213,-368,0,0,0,0,0,0,0,0,0,0,0,0
784,1568,-5536,-1546,6068,-889,-1879,290,718,-1942,7842,-47,-212,-372,0,0,0,0,0,0,0,0,0,0,0,0
785,1570,-5460,-1404,6634,-885,-1882,289,880,-1818,7932,-44,-213,-379,0,0,0,0,0,0,0,0,0,0,0,0
786,1572,-5596,-1202,6462,-887,-1883,291,686,-2044,8204,-43,-214,-379,0,0,0,0,0,0,0,0,0,0,0,0
787,1574,-5460,-942,6256,-889,-1870,289,596,-1810,7904,-45,-208,-384,0,0,0,0,0,0,0,0,0,0,0,0
788,1576,-5494,-1236,6410,-893,-1859,289,822,-1720,7802,-44,-205,-391,0,0,0,0,0,0,0,0,0,0,0,0
789,1578,-5560,-1228,6096,-889,-1854,294,602,-1478,8268,-42,-209,-393,0,0,0,0,0,0,0,0,0,0,0,0
790,1580,-5456,-978,6498,-883,-1860,294,532,-1886,7448,-41,-210,-391,0,0,0,0,0,0,0,0,0,0,0,0
791,1582,-5452,-1236,6450,-878,-1868,289,938,-1816,8248,-37,-205,-394,0,0,0,0,0,0,0,0,0,0,0,0
792,1584,-5834,-1244,5908,-881,-1863,289,706,-1896,7960,-30,-198,-400,0,0,0,0,0,0,0,0,0,0,0,0
793,1586,-5252,-968,6698,-886,-1854,288,934,-1784,8110,-32,-205,-400,0,0,0,0,0,0,0,0,0,0,0,0
794,1588,-5152,-1006,6174,-876,-1851,291,676,-2162,8068,-33,-210,-396,0,0,0,0,0,0,0,0,0,0,0,0
795,1590,-5582,-1142,6408,-877,-1851,288,474,-1682,8062,-29,-213,-397,0,0,0,0,0,0,0,0,0,0,0,0
796,1592,-5126,-1222,6592,-882,-1844,282,938,-1952,8088,-26,-213,-396,0,0,0,0,0,0,0,0,0,0,0,0
797,1594,-5900,-954,6478,-882,-1844,280,482,-1928,7920,-27,-212,-393,0,0,0,0,0,0,0,0,0,0,0,0
798,1596,-5496,-710,6262,-881,-1847,272,1082,-1754,8108,-29,-214,-398,0,0,0,0,0,0,0,0,0,0,0,0
799,1598,-5492,-1072,6248,-883,-1852,267,504,-2162,7672,-29,-209,-393,0,0,0,0,0,0,0,0,0,0,0,0
800,1600,-5552,-932,6408,-885,-1851,262,314,-1652,8046,-31,-209,-395,0,0,0,0,0,0,0,0,0,0,0,0
801,1602,-5470,-1368,6238,-882,-1850,263,650,-2420,7870,-31,-207,-394,0,0,0,0,0,0,0,0,0,0,0,0
802,1604,-5500,-1148,6800,-877,-1858,266,558,-1594,7794,-31,-204,-392,0,0,0,0,0,0,0,0,0,0,0,0
803,1606,-5636,-1248,6182,-880,-1865,268,464,-1976,7842,-31,-204,-392,0,0,0,0,0,0,0,0,0,0,0,0
804,1608,-5566,-1254,6152,-882,-1867,265,320,-1980,7978,-32,-201,-398,0,0,0,0,0,0,0,0,0,0,0,0
805,1610,-5618,-810,6462,-880,-1858,262,810,-2094,7582,-33,-201,-395,0,0,0,0,0,0,0,0,0,0,0,0
806,1612,-5742,-1172,6270,-882,-1864,259,1208,-1574,8164,-31,-204,-391,0,0,0,0,0,0,0,0,0,0,0,0
807,1614,-5604,-1368,5922,-878,-1866,263,430,-1606,7962,-31,-206,-391,0,0,0,0,0,0,0,0,0,0,0,0
808,1616,-5564,-1262,6556,-876,-1867,267,652,-2498,8178,-28,-206,-393,0,0,0,0,0,0,0,0,0,0,0,0
809,1618,-5476,-1026,6212,-877,-1868,270,560,-2090,8132,-25,-206,-393,0,0,0,0,0,0,0,0,0,0,0,0
810,1620,-5656,-926,6244,-870,-1873,267,1184,-1944,8310,-24,-209,-390,0,0,0,0,0,0,0,0,0,0,0,0
811,1622,-5264,-1202,6340,-865,-1872,270,876,-2068,8374,-30,-213,-386,0,0,0,0,0,0,0,0,0,0,0,0
812,1624,-5484,-1318,6386,-870,-1867,272,754,-1726,7858,-31,-216,-383,0,0,0,0,0,0,0,0,0,0,0,0
813,1626,-5318,-1114,5960,-873,-1866,276,1076,-1802,7924,-30,-213,-378,0,0,0,0,0,0,0,0,0,0,0,0
814,1628,-5320,-1394,6248,-874,-1869,275,900,-2008,7890,-32,-213,-374,0,0,0,0,0,0,0,0,0,0,0,0
815,1630,-5472,-1064,6510,-865,-1868,276,1002,-1846,7938,-26,-209,-371,0,0,0,0,0,0,0,0,0,0,0,0
816,1632,-5070,-1094,6586,-864,-1857,276,1112,-1880,8096,-24,-206,-374,0,0,0,0,0,0,0,0,0,0,0,0
817,1634,-5418,-594,6410,-863,-1848,275,614,-1870,8002,-27,-206,-372,0,0,0,0,0,0,0,0,0,0,0,0
818,1636,-5278,-1202,6294,-860,-1846,276,660,-1960,7890,-25,-202,-375,0,0,0,0,0,0,0,0,0,0,0,0
819,1638,-5396,-1208,6426,-859,-1841,272,894,-1816,7694,-17,-200,-382,0,0,0,0,0,0,0,0,0,0,0,0
820,1640,-5562,-1174,6498,-856,-1836,270,1334,-2116,7748,-16,-199,-376,0,0,0,0,0,0,0,0,0,0,0,0
821,1642,-5816,-1126,6148,-859,-1839,275,634,-1868,8110,-15,-204,-375,0,0,0,0,0,0,0,0,0,0,0,0
822,1644,-5278,-1082,6542,-863,-1846,275,1134,-1712,7718,-13,-198,-379,0,0,0,0,0,0,0,0,0,0,0,0
823,1646,-5556,-1176,6384,-864,-1854,273,864,-1822,8116,-15,-201,-376,0,0,0,0,0,0,0,0,0,0,0,0
824,1648,-5396,-1210,6098,-862,-1858,267,1182,-1944,7838,-20,-199,-372,0,0,0,0,0,0,0,0,0,0,0,0
825,1650,-5558,-1198,6460,-870,-1858,259,986,-1908,8030,-23,-193,-375,0,0,0,0,0,0,0,0,0,0,0,0
826,1652,-5550,-1194,6320,-865,-1853,256,922,-1926,8102,-23,-198,-378,0,0,0,0,0,0,0,0,0,0,0,0
827,1654,-5672,-1552,6070,-866,-1869,257,706,-1794,7710,-20,-204,-377,0,0,0,0,0,0,0,0,0,0,0,0
828,1656,-5412,-1382,6226,-868,-1878,259,612,-1530,7726,-16,-205,-378,0,0,0,0,0,0,0,0,0,0,0,0
829,1658,-5384,-1222,6216,-873,-1876,265,942,-1922,7718,-15,-196,-379,0,0,0,0,0,0,0,0,0,0,0,0
830,1660,-5704,-1152,6072,-876,-1875,269,706,-1642,7880,-18,-195,-373,0,0,0,0,0,0,0,0,0,0,0,0
831,1662,-5368,-1320,6460,-870,-1871,268,642,-1450,7890,-15,-195,-369,0,0,0,0,0,0,0,0,0,0,0,0
832,1664,-5368,-1434,6522,-875,-1874,271,694,-1800,7866,-11,-197,-373,0,0,0,0,0,0,0,0,0,0,0,0
833,1666,-5628,-1044,6244,-879,-1864,277,412,-1886,8054,-12,-195,-368,0,0,0,0,0,0,0,0,0,0,0,0
834,1668,-5216,-750,6152,-884,-1856,275,800,-1490,7936,-13,-200,-369,0,0,0,0,0,0,0,0,0,0,0,0
835,1670,-5574,-1244,6126,-889,-1861,275,270,-1712,7628,-4,-201,-370,0,0,0,0,0,0,0,0,0,0,0,0
836,1672,-5396,-1008,6192,-887,-1869,279,298,-1874,7932,1,-196,-375,0,0,0,0,0,0,0,0,0,0,0,0
837,1674,-5220,-1028,6394,-887,-1877,278,500,-1682,8096,5,-197,-374,0,0,0,0,0,0,0,0,0,0,0,0
838,1676,-5374,-960,5858,-889,-1877,278,946,-1988,7904,7,-199,-375,0,0,0,0,0,0,0,0,0,0,0,0
839,1678,-5508,-992,6430,-882,-1876,279,860,-1886,8096,7,-202,-383,0,0,0,0,0,0,0,0,0,0,0,0
840,1680,-5334,-1106,6414,-881,-1879,277,1014,-1674,8130,7,-204,-389,0,0,0,0,0,0,0,0,0,0,0,0
841,1682,-5458,-1112,6820,-887,-1872,278,878,-1808,7810,3,-205,-386,0,0,0,0,0,0,0,0,0,0,0,0
842,1684,-5748,-1014,6034,-896,-1861,279,630,-1680,7642,0,-200,-385,0,0,0,0,0,0,0,0,0,0,0,0
843,1686,-5328,-620,6398,-897,-1863,283,808,-1762,8032,-5,-200,-383,0,0,0,0,0,0,0,0,0,0,0,0
844,1688,-5846,-738,6202,-893,-1874,284,764,-1762,7840,-2,-200,-389,0,0,0,0,0,0,0,0,0,0,0,0
845,1690,-5382,-724,6330,-892,-1878,281,536,-1724,7988,2,-208,-387,0,0,0,0,0,0,0,0,0,0,0,0
846,1692,-5600,-1330,6460,-899,-1868,278,630,-2218,8080,6,-210,-391,0,0,0,0,0,0,0,0,0,0,0,0
847,1694,-5244,-1504,6408,-895,-1861,279,902,-1622,8226,0,-214,-395,0,0,0,0,0,0,0,0,0,0,0,0
848,1696,-5368,-828,6456,-886,-1869,286,1018,-1896,7950,-3,-215,-394,0,0,0,0,0,0,0,0,0,0,0,0
849,1698,-5252,-924,6568,-891,-1865,287,704,-1862,7980,-2,-216,-397,0,0,0,0,0,0,0,0,0,0,0,0
850,1700,-5696,-1304,6228,-897,-1862,284,794,-1650,8162,-5,-217,-397,0,0,0,0,0,0,0,0,0,0,0,0
851,1702,-5340,-1156,6206,-894,-1864,283,754,-1808,8004,-14,-215,-386,0,0,0,0,0,0,0,0,0,0,0,0
852,1704,-5342,-1128,6120,-889,-1875,284,546,-1940,7816,-22,-215,-383,0,0,0,0,0,0,0,0,0,0,0,0
853,1706,-5564,-952,6080,-884,-1880,280,1002,-1654,7708,-26,-218,-387,0,0,0,0,0,0,0,0,0,0,0,0
854,1708,-5026,-1118,6000,-890,-1879,274,1072,-1940,8024,-26,-217,-388,0,0,0,0,0,0,0,0,0,0,0,0
855,1710,-5342,-1074,6582,-895,-1875,273,1044,-1686,7990,-29,-215,-383,0,0,0,0,0,0,0,0,0,0,0,0
856,1712,-5462,-944,6894,-887,-1881,267,934,-1750,7962,-33,-214,-386,0,0,0,0,0,0,0,0,0,0,0,0
857,1714,-4928,-1126,6304,-887,-1882,266,1164,-1800,7986,-30,-212,-389,0,0,0,0,0,0,0,0,0,0,0,0
858,1716,-5612,-1020,6504,-889,-1881,270,696,-1930,7400,-31,-213,-389,0,0,0,0,0,0,0,0,0,0,0,0
859,1718,-5646,-1180,6368,-894,-1882,275,592,-1896,7714,-29,-217,-388,0,0,0,0,0,0,0,0,0,0,0,0
860,1720,-5332,-1160,6248,-887,-1887,275,644,-1804,7740,-32,-212,-383,0,0,0,0,0,0,0,0,0,0,0,0
861,1722,-5382,-1160,6200,-880,-1884,280,1094,-2224,8116,-34,-216,-381,0,0,0,0,0,0,0,0,0,0,0,0
862,1724,-5552,-1010,6512,-880,-1874,282,1208,-1796,7868,-35,-216,-380,0,0,0,0,0,0,0,0,0,0,0,0
863,1726,-5252,-890,6490,-890,-1870,276,762,-1866,8066,-33,-215,-387,0,0,0,0,0,0,0,0,0,0,0,0
864,1728,-5600,-1096,6468,-892,-1877,278,690,-1996,7912,-35,-218,-385,0,0,0,0,0,0,0,0,0,0,0,0
865,1730,-5448,-1150,6320,-886,-1878,284,806,-1754,7798,-42,-221,-381,0,0,0,0,0,0,0,0,0,0,0,0
866,1732,-5216,-774,6492,-888,-1877,283,788,-1538,7882,-45,-225,-384,0,0,0,0,0,0,0,0,0,0,0,0
867,1734,-5472,-1068,6430,-889,-1885,281,1038,-1982,8146,-49,-220,-382,0,0,0,0,0,0,0,0,0,0,0,0
868,1736,-5714,-1062,6382,-888,-1885,286,990,-1486,7810,-51,-222,-374,0,0,0,0,0,0,0,0,0,0,0,0
869,1738,-5498,-1376,5842,-887,-1886,289,442,-2060,7458,-50,-224,-374,0,0,0,0,0,0,0,0,0,0,0,0
870,1740,-5486,-1078,6476,-891,-1885,292,744,-1950,7846,-52,-220,-374,0,0,0,0,0,0,0,0,0,0,0,0
871,1742,-5556,-1308,6478,-890,-1882,298,1044,-1974,7978,-57,-223,-372,0,0,0,0,0,0,0,0,0,0,0,0
872,1744,-5846,-1136,6520,-893,-1883,298,500,-1926,7976,-60,-227,-370,0,0,0,0,0,0,0,0,0,0,0,0
873,1746,-5754,-848,6454,-891,-1884,303,816,-1892,7730,-56,-223,-367,0,0,0,0,0,0,0,0,0,0,0,0
874,1748,-5704,-1122,6678,-888,-1880,308,732,-2310,7708,-60,-220,-365,0,0,0,0,0,0,0,0,0,0,0,0
875,1750,-5376,-1146,6522,-894,-1872,308,960,-1838,7848,-67,-230,-356,0,0,0,0,0,0,0,0,0,0,0,0
876,1752,-5510,-1102,6230,-892,-1874,311,640,-1942,8160,-61,-231,-358,0,0,0,0,0,0,0,0,0,0,0,0
877,1754,-5530,-1240,6378,-886,-1882,311,640,-1552,8106,-58,-227,-360,0,0,0,0,0,0,0,0,0,0,0,0
878,1756,-5554,-936,6606,-883,-1884,314,792,-1664,7934,-67,-224,-358,0,0,0,0,0,0,0,0,0,0,0,0
879,1758,-5454,-1164,6622,-892,-1873,311,606,-1782,7944,-65,-226,-356,0,0,0,0,0,0,0,0,0,0,0,0
880,1760,-5350,-1394,6472,-896,-1870,306,710,-1518,7754,-64,-230,-351,0,0,0,0,0,0,0,0,0,0,0,0
881,1761,-5692,-1122,6524,-894,-1875,309,554,-1888,7856,-62,-231,-347,0,0,0,0,0,0,0,0,0,0,0,0
882,1763,-5564,-1186,6040,-894,-1880,315,642,-1612,8186,-62,-230,-341,0,0,0,0,0,0,0,0,0,0,0,0
883,1765,-5494,-1068,6802,-900,-1885,316,726,-1764,7904,-71,-230,-343,0,0,0,0,0,0,0,0,0,0,0,0
884,1767,-5648,-928,6636,-911,-1886,316,478,-1928,7876,-75,-230,-346,0,0,0,0,0,0,0,0,0,0,0,0
885,1769,-5774,-1354,6300,-911,-1883,312,964,-1676,7864,-73,-228,-346,0,0,0,0,0,0,0,0,0,0,0,0
886,1771,-5674,-1100,6320,-900,-1878,310,988,-1840,8170,-70,-223,-349,0,0,0,0,0,0,0,0,0,0,0,0
887,1774,-5578,-892,5958,-895,-1871,310,674,-1670,7908,-68,-216,-343,0,0,0,0,0,0,0,0,0,0,0,0
888,1775,-5486,-1316,6580,-900,-1864,311,694,-1928,7846,-71,-216,-338,0,0,0,0,0,0,0,0,0,0,0,0
889,1777,-5488,-952,6606,-897,-1861,309,558,-1710,7968,-75,-219,-331,0,0,0,0,0,0,0,0,0,0,0,0
890,1779,-5402,-1028,6378,-894,-1864,302,698,-1872,8298,-81,-220,-331,0,0,0,0,0,0,0,0,0,0,0,0
891,1781,-5772,-1274,6172,-895,-1867,296,954,-1612,7790,-89,-220,-327,0,0,0,0,0,0,0,0,0,0,0,0
892,1783,-5634,-1014,6812,-898,-1864,287,672,-1690,7958,-88,-222,-327,0,0,0,0,0,0,0,0,0,0,0,0
893,1785,-5510,-1070,6326,-899,-1855,287,752,-2032,7872,-84,-218,-332,0,0,0,0,0,0,0,0,0,0,0,0
894,1787,-5482,-1144,6354,-894,-1862,284,862,-1792,7930,-86,-213,-337,0,0,0,0,0,0,0,0,0,0,0,0
895,1789,-5298,-1096,6330,-898,-1869,290,870,-1482,7760,-86,-210,-345,0,0,0,0,0,0,0,0,0,0,0,0
896,1791,-5648,-1248,6142,-904,-1869,289,724,-2064,7712,-88,-206,-351,0,0,0,0,0,0,0,0,0,0,0,0
897,1793,-5522,-992,6082,-899,-1876,286,906,-1800,7814,-87,-208,-355,0,0,0,0,0,0,0,0,0,0,0,0
898,1795,-5524,-1120,6198,-894,-1878,279,782,-1728,7846,-80,-206,-358,0,0,0,0,0,0,0,0,0,0,0,0
899,1797,-5336,-1368,6456,-895,-1875,272,868,-1958,7790,-72,-205,-357,0,0,0,0,0,0,0,0,0,0,0,0
900,1799,-5340,-1198,6464,-895,-1876,275,958,-1692,7932,-65,-208,-358,0,0,0,0,0,0,0,0,0,0,0,0
901,1801,-5308,-562,6316,-904,-1877,280,816,-2054,7990,-72,-209,-352,0,0,0,0,0,0,0,0,0,0,0,0
902,1803,-5718,-974,6326,-903,-1884,283,434,-1674,7654,-73,-211,-345,0,0,0,0,0,0,0,0,0,0,0,0
903,1805,-5484,-1002,6214,-903,-1896,276,406,-1678,7830,-71,-211,-340,0,0,0,0,0,0,0,0,0,0,0,0
904,1807,-5522,-894,6300,-903,-1897,275,826,-1964,7958,-69,-210,-336,0,0,0,0,0,0,0,0,0,0,0,0
905,1809,-5162,-950,6324,-905,-1893,284,780,-1986,7842,-77,-216,-336,0,0,0,0,0,0,0,0,0,0,0,0
906,1811,-5360,-1274,6330,-895,-1896,284,624,-2166,8020,-86,-219,-333,0,0,0,0,0,0,0,0,0,0,0,0
907,1813,-5544,-1404,6102,-889,-1900,281,612,-1392,7936,-79,-218,-340,0,0,0,0,0,0,0,0,0,0,0,0
908,1815,-5560,-1178,6708,-890,-1898,280,720,-1844,7434,-73,-218,-348,0,0,0,0,0,0,0,0,0,0,0,0
909,1817,-5360,-1188,6518,-889,-1892,283,580,-1750,8122,-68,-214,-356,0,0,0,0,0,0,0,0,0,0,0,0
910,1819,-5088,-1184,6190,-895,-1892,284,934,-1848,7986,-71,-217,-354,0,0,0,0,0,0,0,0,0,0,0,0
911,1821,-5682,-1266,6610,-891,-1896,287,848,-1888,7984,-72,-220,-354,0,0,0,0,0,0,0,0,0,0,0,0
912,1823,-5474,-1208,6262,-892,-1896,298,862,-1942,7806,-70,-217,-355,0,0,0,0,0,0,0,0,0,0,0,0
913,1825,-5490,-1288,6118,-896,-1889,295,532,-1774,7938,-74,-218,-353,0,0,0,0,0,0,0,0,0,0,0,0
914,1827,-5614,-1202,6322,-902,-1880,300,116,-1970,7844,-81,-215,-352,0,0,0,0,0,0,0,0,0,0,0,0
915,1829,-5386,-1042,6610,-896,-1880,297,482,-1754,7942,-87,-214,-349,0,0,0,0,0,0,0,0,0,0,0,0
916,1831,-5326,-1164,6454,-890,-1873,291,772,-1734,7936,-91,-220,-346,0,0,0,0,0,0,0,0,0,0,0,0
917,1833,-5322,-1466,6360,-893,-1876,296,528,-1774,8028,-93,-224,-347,0,0,0,0,0,0,0,0,0,0,0,0
918,1835,-5554,-1158,6374,-896,-1877,299,640,-1958,7698,-96,-226,-348,0,0,0,0,0,0,0,0,0,0,0,0
919,1837,-5332,-1090,6434,-886,-1881,298,536,-1830,7666,-93,-230,-346,0,0,0,0,0,0,0,0,0,0,0,0
920,1839,-5548,-728,6366,-881,-1879,301,548,-1628,7998,-85,-227,-346,0,0,0,0,0,0,0,0,0,0,0,0
921,1841,-5444,-1194,6816,-885,-1882,304,638,-1756,7666,-87,-223,-340,0,0,0,0,0,0,0,0,0,0,0,0
922,1843,-5188,-1158,6358,-886,-1880,301,728,-1286,7814,-94,-223,-337,0,0,0,0,0,0,0,0,0,0,0,0
923,1845,-5286,-858,6572,-880,-1884,300,884,-1614,7800,-96,-220,-332,0,0,0,0,0,0,0,0,0,0,0,0
924,1847,-5470,-876,6296,-874,-1887,302,938,-1778,8400,-87,-220,-336,0,0,0,0,0,0,0,0,0,0,0,0
925,1849,-5540,-1142,6178,-877,-1891,300,628,-1922,7618,-77,-222,-338,0,0,0,0,0,0,0,0,0,0,0,0
926,1851,-5354,-1084,6082,-878,-1885,300,602,-2162,7776,-76,-226,-337,0,0,0,0,0,0,0,0,0,0,0,0
927,1853,-5672,-956,6344,-871,-1887,307,888,-1736,7798,-80,-228,-337,0,0,0,0,0,0,0,0,0,0,0,0
928,1855,-5492,-1028,6174,-866,-1895,307,980,-2200,7908,-81,-224,-340,0,0,0,0,0,0,0,0,0,0,0,0
929,1857,-5044,-954,6388,-878,-1892,303,890,-1766,7856,-81,-220,-348,0,0,0,0,0,0,0,0,0,0,0,0
930,1859,-5220,-1260,6228,-881,-1883,304,880,-1812,8000,-76,-220,-349,0,0,0,0,0,0,0,0,0,0,0,0
931,1861,-5188,-912,6418,-875,-1881,304,434,-1954,7830,-65,-220,-356,0,0,0,0,0,0,0,0,0,0,0,0
932,1863,-5636,-990,6218,-869,-1888,301,826,-1850,7800,-60,-219,-363,0,0,0,0,0,0,0,0,0,0,0,0
933,1865,-5346,-900,6774,-871,-1891,297,428,-2188,7886,-57,-223,-365,0,0,0,0,0,0,0,0,0,0,0,0
934,1867,-5710,-1338,6632,-881,-1880,293,900,-1902,8054,-54,-223,-363,0,0,0,0,0,0,0,0,0,0,0,0
935,1869,-5524,-984,6130,-872,-1877,293,702,-1700,8292,-53,-226,-367,0,0,0,0,0,0,0,0,0,0,0,0
936,1871,-5196,-1192,6076,-864,-1882,295,472,-1946,7986,-51,-229,-369,0,0,0,0,0,0,0,0,0,0,0,0
937,1874,-5444,-1170,6462,-869,-1879,294,588,-1668,8038,-46,-227,-372,0,0,0,0,0,0,0,0,0,0,0,0
938,1875,-5812,-1324,6590,-878,-1877,295,944,-2058,8062,-45,-229,-373,0,0,0,0,0,0,0,0,0,0,0,0
939,1877,-5392,-1270,6204,-875,-1872,297,798,-2062,7828,-44,-230,-377,0,0,0,0,0,0,0,0,0,0,0,0
940,1879,-5672,-1244,6680,-869,-1867,297,658,-1668,7904,-45,-230,-375,0,0,0,0,0,0,0,0,0,0,0,0
941,1882,-5304,-1268,6082,-872,-1864,300,856,-1546,7940,-40,-227,-375,0,0,0,0,0,0,0,0,0,0,0,0
942,1884,-5514,-1434,6368,-885,-1862,306,1050,-2100,7596,-35,-223,-378,0,0,0,0,0,0,0,0,0,0,0,0
943,1886,-5516,-1248,6422,-883,-1861,304,1216,-1344,8056,-35,-223,-377,0,0,0,0,0,0,0,0,0,0,0,0
944,1888,-5746,-1034,6396,-870,-1867,301,900,-1646,8000,-38,-223,-371,0,0,0,0,0,0,0,0,0,0,0,0
945,1889,-5610,-1058,6680,-867,-1872,300,756,-1884,8170,-37,-224,-370,0,0,0,0,0,0,0,0,0,0,0,0
946,1892,-5616,-1156,6216,-866,-1864,302,864,-2078,8076,-38,-221,-376,0,0,0,0,0,0,0,0,0,0,0,0
947,1893,-5584,-1052,6416,-872,-1859,303,694,-2010,7562,-34,-219,-381,0,0,0,0,0,0,0,0,0,0,0,0
948,1896,-5316,-1220,6170,-874,-1865,302,634,-1532,7916,-35,-220,-380,0,0,0,0,0,0,0,0,0,0,0,0
949,1898,-5640,-1334,6414,-868,-1871,302,524,-1934,7988,-31,-219,-380,0,0,0,0,0,0,0,0,0,0,0,0
950,1900,-5472,-1144,6196,-870,-1875,300,800,-1998,7940,-26,-218,-383,0,0,0,0,0,0,0,0,0,0,0,0
951,1902,-5612,-1082,6518,-875,-1884,301,930,-1930,7760,-22,-221,-381,0,0,0,0,0,0,0,0,0,0,0,0
952,1904,-5464,-992,6162,-876,-1882,303,508,-2010,8002,-27,-219,-375,0,0,0,0,0,0,0,0,0,0,0,0
953,1906,-5564,-1172,6286,-875,-1885,299,530,-2002,7690,-26,-220,-373,0,0,0,0,0,0,0,0,0,0,0,0
954,1908,-5550,-1146,6152,-876,-1879,302,702,-1922,7972,-25,-217,-375,0,0,0,0,0,0,0,0,0,0,0,0
955,1910,-5468,-1016,6570,-883,-1880,303,1086,-2104,7982,-26,-209,-376,0,0,0,0,0,0,0,0,0,0,0,0
956,1912,-5190,-1062,6746,-886,-1887,302,1204,-1706,7980,-24,-206,-379,0,0,0,0,0,0,0,0,0,0,0,0
957,1914,-5958,-970,6186,-881,-1898,298,970,-1770,7968,-25,-206,-380,0,0,0,0,0,0,0,0,0,0,0,0
958,1916,-5712,-870,6558,-880,-1897,295,748,-2182,7982,-29,-204,-376,0,0,0,0,0,0,0,0,0,0,0,0
959,1918,-5408,-1170,6530,-885,-1886,304,614,-1732,8062,-30,-206,-377,0,0,0,0,0,0,0,0,0,0,0,0
960,1920,-5732,-1064,6464,-881,-1875,305,748,-1700,7848,-22,-205,-381,0,0,0,0,0,0,0,0,0,0,0,0
961,1922,-5716,-1044,6590,-872,-1874,295,1116,-1810,8088,-19,-207,-383,0,0,0,0,0,0,0,0,0,0,0,0
962,1924,-5598,-1196,6266,-866,-1874,290,654,-1742,7468,-19,-209,-380,0,0,0,0,0,0,0,0,0,0,0,0
963,1926,-5780,-926,6348,-867,-1873,296,640,-1614,7976,-16,-207,-376,0,0,0,0,0,0,0,0,0,0,0,0
964,1928,-5742,-1108,6370,-869,-1870,296,726,-2102,8086,-14,-205,-385,0,0,0,0,0,0,0,0,0,0,0,0
965,1930,-5676,-1100,6080,-861,-1872,286,580,-1846,7790,-8,-202,-391,0,0,0,0,0,0,0,0,0,0,0,0
966,1932,-5624,-1334,6280,-858,-1873,285,832,-1948,8090,-6,-199,-387,0,0,0,0,0,0,0,0,0,0,0,0
967,1934,-5686,-1282,6308,-858,-1868,281,1134,-2140,7958,-7,-200,-386,0,0,0,0,0,0,0,0,0,0,0,0
968,1936,-5498,-704,6178,-853,-1867,274,884,-2106,7892,-17,-200,-380,0,0,0,0,0,0,0,0,0,0,0,0
969,1938,-5592,-1032,5984,-849,-1877,272,1148,-1648,7894,-21,-203,-383,0,0,0,0,0,0,0,0,0,0,0,0
970,1940,-5492,-1172,6292,-854,-1878,279,692,-2128,7928,-21,-206,-382,0,0,0,0,0,0,0,0,0,0,0,0
971,1942,-5264,-1168,6188,-868,-1880,282,302,-1738,7988,-22,-209,-376,0,0,0,0,0,0,0,0,0,0,0,0
972,1944,-5368,-1416,6776,-872,-1884,281,658,-1712,8048,-25,-213,-378,0,0,0,0,0,0,0,0,0,0,0,0
973,1946,-5342,-1076,6070,-870,-1888,276,1018,-1764,8072,-22,-207,-379,0,0,0,0,0,0,0,0,0,0,0,0
974,1948,-5828,-894,6300,-866,-1888,272,1012,-1770,7562,-25,-208,-379,0,0,0,0,0,0,0,0,0,0,0,0
975,1950,-5284,-1118,6536,-874,-1892,264,660,-1682,8172,-35,-212,-377,0,0,0,0,0,0,0,0,0,0,0,0
976,1952,-5652,-1090,6004,-882,-1890,265,856,-1732,7872,-38,-211,-371,0,0,0,0,0,0,0,0,0,0,0,0
977,1954,-5498,-1092,6242,-877,-1891,267,968,-2146,8012,-45,-211,-372,0,0,0,0,0,0,0,0,0,0,0,0
978,1956,-5408,-1490,6486,-871,-1896,270,198,-1654,7868,-46,-215,-369,0,0,0,0,0,0,0,0,0,0,0,0
979,1958,-5418,-1108,6592,-870,-1889,273,710,-1776,7898,-48,-221,-365,0,0,0,0,0,0,0,0,0,0,0,0
980,1960,-5244,-970,6422,-877,-1890,278,472,-1536,8068,-56,-223,-361,0,0,0,0,0,0,0,0,0,0,0,0
981,1962,-5444,-1232,6396,-876,-1892,280,474,-1670,8090,-58,-221,-357,0,0,0,0,0,0,0,0,0,0,0,0
982,1964,-5400,-922,6252,-867,-1894,276,854,-1762,7908,-57,-223,-355,0,0,0,0,0,0,0,0,0,0,0,0
983,1966,-5606,-874,6010,-864,-1894,278,1036,-1582,7946,-55,-224,-357,0,0,0,0,0,0,0,0,0,0,0,0
984,1968,-5506,-1428,6360,-870,-1895,283,1136,-1650,8090,-57,-221,-359,0,0,0,0,0,0,0,0,0,0,0,0
985,1970,-5340,-1234,6172,-875,-1891,283,932,-1832,7864,-60,-219,-364,0,0,0,0,0,0,0,0,0,0,0,0
986,1972,-5598,-1250,6262,-870,-1889,280,594,-1772,8202,-55,-216,-366,0,0,0,0,0,0,0,0,0,0,0,0
987,1974,-5702,-1012,6354,-863,-1884,276,816,-1680,7920,-56,-214,-364,0,0,0,0,0,0,0,0,0,0,0,0
988,1976,-5696,-1056,6536,-866,-1882,277,928,-1680,7954,-59,-219,-364,0,0,0,0,0,0,0,0,0,0,0,0
989,1978,-5832,-760,6274,-872,-1884,278,868,-1978,7922,-56,-217,-362,0,0,0,0,0,0,0,0,0,0,0,0
990,1980,-5564,-956,6336,-868,-1890,280,958,-1330,7846,-58,-215,-363,0,0,0,0,0,0,0,0,0,0,0,0
991,1982,-5028,-1168,6550,-867,-1901,273,1070,-1618,8002,-57,-214,-361,0,0,0,0,0,0,0,0,0,0,0,0
992,1984,-5418,-1244,6212,-868,-1894,278,888,-1994,8080,-56,-215,-362,0,0,0,0,0,0,0,0,0,0,0,0
993,1986,-5276,-1212,6434,-873,-1888,284,1144,-1878,7902,-57,-214,-366,0,0,0,0,0,0,0,0,0,0,0,0
994,1988,-5520,-924,6662,-875,-1894,282,698,-1778,7948,-56,-207,-368,0,0,0,0,0,0,0,0,0,0,0,0
995,1990,-5416,-958,6426,-880,-1893,276,688,-1912,7882,-53,-209,-367,0,0,0,0,0,0,0,0,0,0,0,0
996,1992,-5556,-952,6174,-890,-1896,273,624,-1672,7804,-49,-206,-374,0,0,0,0,0,0,0,0,0,0,0,0
997,1994,-5772,-1168,6498,-891,-1904,275,786,-1948,8038,-50,-206,-378,0,0,0,0,0,0,0,0,0,0,0,0
998,1996,-5634,-1190,6000,-892,-1910,283,788,-1694,7934,-49,-202,-378,0,0,0,0,0,0,0,0,0,0,0,0
999,1998,-5348,-1116,6346,-894,-1906,284,674,-2130,8118,-44,-207,-379,0,0,0,0,0,0,0,0,0,0,0,0
1000,2000,-5154,-980,6006,-900,-1912,288,868,-1896,8292,-45,-209,-380,0,0,0,0,0,0,0,0,0,0,0,0
1001,2002,-5132,-1152,5836,-898,-1902,286,646,-1886,8072,-50,-209,-382,0,0,0,0,0,0,0,0,0,0,0,0
1002,2004,-5216,-862,6518,-898,-1907,281,674,-1864,7798,-49,-206,-387,0,0,0,0,0,0,0,0,0,0,0,0
1003,2006,-5502,-866,6436,-894,-1917,278,894,-1848,7818,-47,-206,-390,0,0,0,0,0,0,0,0,0,0,0,0
1004,2008,-5430,-978,5852,-899,-1921,274,1378,-1330,8140,-48,-209,-388,0,0,0,0,0,0,0,0,0,0,0,0
1005,2010,-5472,-1142,6200,-900,-1915,276,636,-2026,7942,-49,-215,-391,0,0,0,0,0,0,0,0,0,0,0,0
1006,2012,-5530,-1352,6476,-887,-1913,285,734,-1900,7694,-46,-216,-396,0,0,0,0,0,0,0,0,0,0,0,0
1007,2014,-5528,-1242,6448,-881,-1909,281,1228,-1910,7884,-44,-211,-395,0,0,0,0,0,0,0,0,0,0,0,0
1008,2016,-5636,-1080,6130,-882,-1909,282,1076,-1924,7956,-39,-212,-388,0,0,0,0,0,0,0,0,0,0,0,0
1009,2018,-5426,-1170,6296,-891,-1913,288,562,-1688,7928,-40,-215,-389,0,0,0,0,0,0,0,0,0,0,0,0
1010,2020,-5412,-926,6438,-887,-1915,289,716,-2038,7758,-39,-213,-391,0,0,0,0,0,0,0,0,0,0,0,0
1011,2022,-5130,-928,6204,-884,-1924,286,700,-1914,8054,-34,-205,-390,0,0,0,0,0,0,0,0,0,0,0,0
1012,2024,-5578,-880,6714,-880,-1921,286,1028,-1834,8114,-37,-206,-390,0,0,0,0,0,0,0,0,0,0,0,0
1013,2026,-5502,-1138,6338,-884,-1913,288,746,-1580,8224,-44,-207,-385,0,0,0,0,0,0,0,0,0,0,0,0
1014,2028,-5544,-1384,6504,-882,-1909,289,832,-1678,8002,-39,-207,-389,0,0,0,0,0,0,0,0,0,0,0,0
1015,2030,-5586,-1218,6218,-878,-1914,287,932,-1758,8026,-39,-206,-381,0,0,0,0,0,0,0,0,0,0,0,0
1016,2032,-5454,-840,6364,-877,-1915,292,812,-1980,8068,-42,-207,-378,0,0,0,0,0,0,0,0,0,0,0,0
1017,2034,-5730,-948,6456,-873,-1910,296,682,-2174,8164,-50,-216,-381,0,0,0,0,0,0,0,0,0,0,0,0
1018,2036,-5366,-1064,6158,-875,-1903,301,676,-1568,7682,-46,-213,-384,0,0,0,0,0,0,0,0,0,0,0,0
1019,2038,-5286,-1112,6460,-870,-1900,303,526,-1668,7976,-44,-210,-378,0,0,0,0,0,0,0,0,0,0,0,0
1020,2040,-5230,-1052,6336,-862,-1898,303,828,-1626,7906,-35,-206,-377,0,0,0,0,0,0,0,0,0,0,0,0
1021,2042,-5810,-1192,6594,-868,-1896,302,1050,-1550,7732,-40,-207,-381,0,0,0,0,0,0,0,0,0,0,0,0
1022,2044,-5310,-1064,6516,-870,-1897,303,166,-1976,7850,-40,-204,-385,0,0,0,0,0,0,0,0,0,0,0,0
1023,2046,-5612,-1076,6384,-870,-1895,302,546,-1658,7776,-34,-208,-387,0,0,0,0,0,0,0,0,0,0,0,0
1024,2048,-5450,-904,6218,-875,-1901,302,340,-1940,7860,-36,-210,-389,0,0,0,0,0,0,0,0,0,0,0,0
1025,2050,-5750,-1216,6388,-880,-1902,302,926,-2182,7988,-28,-210,-387,0,0,0,0,0,0,0,0,0,0,0,0
1026,2052,-5378,-1098,5990,-883,-1901,298,804,-2026,7954,-29,-209,-389,0,0,0,0,0,0,0,0,0,0,0,0
1027,2054,-5578,-1136,6394,-885,-1899,295,938,-1774,7886,-31,-208,-391,0,0,0,0,0,0,0,0,0,0,0,0
1028,2056,-5612,-1066,6678,-879,-1895,289,1128,-1694,7548,-30,-202,-393,0,0,0,0,0,0,0,0,0,0,0,0
1029,2058,-5782,-1390,6358,-879,-1897,290,964,-1982,7686,-30,-202,-394,0,0,0,0,0,0,0,0,0,0,0,0
1030,2060,-5586,-1162,6532,-886,-1894,297,850,-1536,8098,-37,-215,-391,0,0,0,0,0,0,0,0,0,0,0,0
1031,2062,-5648,-1244,6440,-888,-1898,292,750,-1966,7556,-39,-216,-392,0,0,0,0,0,0,0,0,0,0,0,0
1032,2064,-5608,-874,6308,-884,-1904,290,844,-2052,7888,-34,-216,-397,0,0,0,0,0,0,0,0,0,0,0,0
1033,2066,-5678,-934,6458,-886,-1906,296,994,-2036,7946,-31,-213,-400,0,0,0,0,0,0,0,0,0,0,0,0
1034,2068,-5370,-1290,6262,-892,-1893,295,524,-1848,8252,-31,-214,-407,0,0,0,0,0,0,0,0,0,0,0,0
1035,2070,-5704,-1372,6516,-889,-1889,294,990,-1874,7834,-29,-217,-406,0,0,0,0,0,0,0,0,0,0,0,0
1036,2072,-5586,-1280,6718,-890,-1891,298,1156,-1390,8096,-30,-214,-406,0,0,0,0,0,0,0,0,0,0,0,0
1037,2074,-5454,-1162,6416,-890,-1895,302,1020,-1794,7916,-30,-207,-412,0,0,0,0,0,0,0,0,0,0,0,0
1038,2076,-5850,-1212,6252,-889,-1890,297,744,-2074,8008,-30,-205,-415,0,0,0,0,0,0,0,0,0,0,0,0
1039,2078,-5358,-1168,6382,-888,-1880,290,994,-1992,8014,-29,-208,-420,0,0,0,0,0,0,0,0,0,0,0,0
1040,2080,-5558,-1092,6458,-880,-1878,292,740,-2226,7818,-34,-211,-418,0,0,0,0,0,0,0,0,0,0,0,0
1041,2082,-5476,-1206,6292,-881,-1883,296,790,-2088,8024,-35,-210,-414,0,0,0,0,0,0,0,0,0,0,0,0
1042,2084,-5354,-930,6134,-880,-1883,294,1172,-1814,7628,-36,-205,-409,0,0,0,0,0,0,0,0,0,0,0,0
1043,2086,-5390,-1046,6506,-881,-1883,288,824,-1652,7776,-32,-199,-402,0,0,0,0,0,0,0,0,0,0,0,0
1044,2088,-5400,-1192,6534,-886,-1878,295,812,-1834,7874,-21,-197,-403,0,0,0,0,0,0,0,0,0,0,0,0
1045,2090,-5246,-1128,6452,-891,-1884,299,1002,-1982,8032,-16,-195,-405,0,0,0,0,0,0,0,0,0,0,0,0
1046,2092,-5576,-1016,6224,-898,-1879,302,792,-1942,8250,-17,-198,-401,0,0,0,0,0,0,0,0,0,0,0,0
1047,2094,-5588,-1330,6228,-900,-1872,305,354,-1954,7896,-18,-202,-403,0,0,0,0,0,0,0,0,0,0,0,0
1048,2096,-5568,-1320,6274,-893,-1874,298,754,-1680,7796,-18,-199,-411,0,0,0,0,0,0,0,0,0,0,0,0
1049,2098,-5172,-916,6198,-890,-1882,295,944,-1966,7850,-13,-196,-412,0,0,0,0,0,0,0,0,0,0,0,0
1050,2100,-5330,-762,6470,-885,-1888,297,726,-1600,8094,-9,-200,-413,0,0,0,0,0,0,0,0,0,0,0,0
1051,2102,-5666,-1342,6522,-891,-1888,297,620,-2206,8084,-13,-203,-411,0,0,0,0,0,0,0,0,0,0,0,0
1052,2104,-5568,-1174,5976,-892,-1890,293,704,-1748,7586,-10,-204,-408,0,0,0,0,0,0,0,0,0,0,0,0
1053,2106,-5578,-1002,6066,-889,-1895,292,420,-1800,7972,-12,-198,-399,0,0,0,0,0,0,0,0,0,0,0,0
1054,2108,-5468,-848,5946,-885,-1893,284,968,-1542,7606,-15,-196,-395,0,0,0,0,0,0,0,0,0,0,0,0
1055,2110,-5690,-796,6160,-885,-1896,280,544,-1548,7964,-21,-199,-390,0,0,0,0,0,0,0,0,0,0,0,0
1056,2112,-5528,-1078,6514,-888,-1905,287,794,-1570,7906,-27,-205,-389,0,0,0,0,0,0,0,0,0,0,0,0
1057,2114,-5476,-1296,6252,-885,-1910,291,838,-1898,7694,-31,-213,-385,0,0,0,0,0,0,0,0,0,0,0,0
1058,2116,-5526,-1422,6390,-888,-1916,294,624,-1824,7986,-33,-213,-393,0,0,0,0,0,0,0,0,0,0,0,0
1059,2118,-5582,-1176,6288,-889,-1905,298,660,-2072,7836,-28,-210,-401,0,0,0,0,0,0,0,0,0,0,0,0
1060,2120,-5430,-1212,6420,-882,-1899,297,612,-1712,8224,-31,-209,-399,0,0,0,0,0,0,0,0,0,0,0,0
1061,2122,-5848,-1056,6334,-878,-1900,296,830,-2100,7880,-29,-207,-405,0,0,0,0,0,0,0,0,0,0,0,0
1062,2124,-5446,-1162,6562,-878,-1906,296,852,-1930,8104,-22,-207,-404,0,0,0,0,0,0,0,0,0,0,0,0
1063,2126,-5688,-938,6456,-878,-1906,298,978,-1590,8018,-15,-203,-401,0,0,0,0,0,0,0,0,0,0,0,0
1064,2128,-5592,-758,6488,-877,-1908,290,538,-1816,8112,-17,-207,-407,0,0,0,0,0,0,0,0,0,0,0,0
1065,2130,-5334,-1210,6418,-879,-1915,288,806,-2172,7982,-27,-209,-408,0,0,0,0,0,0,0,0,0,0,0,0
1066,2132,-5920,-1552,6474,-884,-1908,287,894,-1390,7774,-35,-206,-403,0,0,0,0,0,0,0,0,0,0,0,0
1067,2134,-5534,-1180,6286,-889,-1897,288,766,-2044,7978,-37,-211,-405,0,0,0,0,0,0,0,0,0,0,0,0
1068,2136,-5832,-1154,6516,-892,-1891,290,734,-1752,7694,-35,-208,-408,0,0,0,0,0,0,0,0,0,0,0,0
1069,2138,-5672,-1056,6428,-891,-1898,288,510,-1930,7922,-35,-212,-409,0,0,0,0,0,0,0,0,0,0,0,0
1070,2140,-5690,-976,6310,-887,-1909,292,982,-1780,7944,-32,-208,-405,0,0,0,0,0,0,0,0,0,0,0,0
1071,2142,-5316,-1224,6458,-883,-1915,295,732,-1660,8140,-29,-203,-407,0,0,0,0,0,0,0,0,0,0,0,0
1072,2144,-5960,-1070,6516,-877,-1912,297,962,-1650,8016,-25,-206,-414,0,0,0,0,0,0,0,0,0,0,0,0
1073,2146,-5164,-1188,6054,-875,-1917,302,898,-1764,8260,-32,-209,-409,0,0,0,0,0,0,0,0,0,0,0,0
1074,2148,-5514,-1104,5900,-876,-1933,298,742,-1842,7890,-32,-206,-406,0,0,0,0,0,0,0,0,0,0,0,0
1075,2150,-5528,-1058,6218,-876,-1931,296,442,-1564,7724,-27,-200,-403,0,0,0,0,0,0,0,0,0,0,0,0
1076,2152,-5428,-1608,6288,-875,-1931,292,764,-1690,8198,-29,-198,-403,0,0,0,0,0,0,0,0,0,0,0,0
1077,2154,-5240,-1196,6582,-879,-1927,287,800,-1694,7798,-32,-197,-406,0,0,0,0,0,0,0,0,0,0,0,0
1078,2156,-5488,-886,6126,-879,-1922,286,980,-2252,7590,-32,-200,-402,0,0,0,0,0,0,0,0,0,0,0,0
1079,2158,-5714,-1268,6270,-877,-1919,291,348,-1774,8222,-27,-199,-404,0,0,0,0,0,0,0,0,0,0,0,0
1080,2160,-5270,-1102,6476,-878,-1920,293,938,-2232,7772,-34,-196,-406,0,0,0,0,0,0,0,0,0,0,0,0
1081,2162,-5810,-1134,6658,-878,-1919,300,588,-1912,7892,-36,-198,-405,0,0,0,0,0,0,0,0,0,0,0,0
1082,2164,-5594,-1012,6588,-875,-1919,302,900,-1700,7724,-35,-194,-402,0,0,0,0,0,0,0,0,0,0,0,0
1083,2166,-5318,-1024,6734,-875,-1927,297,634,-1734,7756,-35,-192,-398,0,0,0,0,0,0,0,0,0,0,0,0
1084,2168,-5436,-808,6458,-888,-1921,299,616,-1916,7662,-35,-188,-402,0,0,0,0,0,0,0,0,0,0,0,0
1085,2170,-5432,-1086,6390,-895,-1916,300,904,-2188,7878,-33,-192,-406,0,0,0,0,0,0,0,0,0,0,0,0
1086,2172,-5790,-1060,5880,-890,-1916,299,834,-2032,7798,-39,-195,-412,0,0,0,0,0,0,0,0,0,0,0,0
1087,2174,-5532,-1054,6524,-893,-1909,300,668,-1646,7910,-40,-193,-414,0,0,0,0,0,0,0,0,0,0,0,0
1088,2176,-5622,-1270,6108,-897,-1905,302,714,-1490,8130,-42,-196,-414,0,0,0,0,0,0,0,0,0,0,0,0
1089,2178,-5622,-1180,6458,-895,-1904,300,606,-1918,7822,-49,-192,-408,0,0,0,0,0,0,0,0,0,0,0,0
1090,2180,-5796,-1062,6244,-894,-1906,301,690,-1980,7916,-51,-191,-406,0,0,0,0,0,0,0,0,0,0,0,0
1091,2182,-5792,-802,6584,-895,-1905,305,1184,-1864,7708,-52,-192,-403,0,0,0,0,0,0,0,0,0,0,0,0
1092,2184,-5488,-1048,6428,-898,-1897,305,670,-1890,7868,-47,-191,-396,0,0,0,0,0,0,0,0,0,0,0,0
1093,2186,-5528,-854,6334,-901,-1899,306,1124,-1940,8116,-53,-195,-391,0,0,0,0,0,0,0,0,0,0,0,0
1094,2188,-5654,-1004,6384,-901,-1906,308,884,-2066,7858,-59,-198,-402,0,0,0,0,0,0,0,0,0,0,0,0
1095,2190,-5476,-1362,6224,-902,-1909,300,754,-1836,7848,-57,-203,-406,0,0,0,0,0,0,0,0,0,0,0,0
1096,2192,-5306,-1186,6268,-906,-1907,298,1002,-1730,8118,-55,-198,-406,0,0,0,0,0,0,0,0,0,0,0,0
1097,2194,-5828,-1066,6064,-908,-1902,299,802,-1676,8052,-61,-201,-406,0,0,0,0,0,0,0,0,0,0,0,0
1098,2196,-5646,-1224,6168,-903,-1903,301,1066,-1704,8004,-63,-204,-405,0,0,0,0,0,0,0,0,0,0,0,0
1099,2198,-5492,-1012,6736,-907,-1907,299,570,-2034,8020,-62,-203,-409,0,0,0,0,0,0,0,0,0,0,0,0
1100,2200,-5246,-1322,6350,-910,-1908,298,902,-1858,7846,-65,-202,-409,0,0,0,0,0,0,0,0,0,0,0,0
1101,2202,-5454,-1114,6420,-907,-1907,298,936,-1768,7648,-76,-205,-403,0,0,0,0,0,0,0,0,0,0,0,0
1102,2204,-5216,-1242,6370,-905,-1907,301,818,-1706,7648,-74,-205,-409,0,0,0,0,0,0,0,0,0,0,0,0
1103,2206,-5818,-1220,6638,-903,-1911,296,1058,-1490,7954,-73,-213,-409,0,0,0,0,0,0,0,0,0,0,0,0
1104,2208,-5446,-1132,6180,-903,-1910,291,792,-2064,7942,-68,-214,-407,0,0,0,0,0,0,0,0,0,0,0,0
1105,2210,-5182,-1164,6554,-910,-1899,291,842,-1726,8080,-57,-217,-406,0,0,0,0,0,0,0,0,0,0,0,0
1106,2212,-5236,-1246,6212,-909,-1899,297,772,-1754,7986,-57,-221,-409,0,0,0,0,0,0,0,0,0,0,0,0
1107,2214,-5506,-1226,6484,-899,-1905,295,332,-1680,7924,-55,-219,-403,0,0,0,0,0,0,0,0,0,0,0,0
1108,2216,-5610,-1444,6414,-896,-1902,291,1226,-2012,7608,-56,-212,-396,0,0,0,0,0,0,0,0,0,0,0,0
1109,2218,-5094,-818,6306,-896,-1895,289,964,-1550,7780,-53,-211,-394,0,0,0,0,0,0,0,0,0,0,0,0
1110,2220,-5960,-852,6618,-894,-1900,294,408,-1880,7854,-50,-211,-394,0,0,0,0,0,0,0,0,0,0,0,0
1111,2222,-5554,-1052,6418,-887,-1900,292,604,-2250,7860,-53,-213,-393,0,0,0,0,0,0,0,0,0,0,0,0
1112,2224,-5368,-1190,6230,-886,-1897,291,790,-1684,7922,-58,-213,-391,0,0,0,0,0,0,0,0,0,0,0,0
1113,2226,-5332,-1358,6388,-889,-1900,295,938,-1784,7542,-61,-216,-391,0,0,0,0,0,0,0,0,0,0,0,0
1114,2228,-5554,-824,6302,-885,-1899,296,614,-2056,7908,-57,-216,-388,0,0,0,0,0,0,0,0,0,0,0,0
1115,2230,-5514,-890,6422,-884,-1900,292,474,-1752,7692,-58,-212,-396,0,0,0,0,0,0,0,0,0,0,0,0
1116,2232,-5530,-1050,6368,-887,-1897,299,654,-1894,7950,-63,-207,-390,0,0,0,0,0,0,0,0,0,0,0,0
1117,2234,-5654,-1140,6128,-894,-1896,300,834,-1508,7656,-66,-210,-383,0,0,0,0,0,0,0,0,0,0,0,0
1118,2236,-5704,-1408,6126,-892,-1890,294,908,-1880,7744,-68,-215,-382,0,0,0,0,0,0,0,0,0,0,0,0
1119,2238,-5626,-946,6734,-884,-1894,290,1000,-1654,8332,-65,-210,-381,0,0,0,0,0,0,0,0,0,0,0,0
1120,2240,-5618,-946,6350,-889,-1897,296,890,-2058,7780,-63,-210,-381,0,0,0,0,0,0,0,0,0,0,0,0
1121,2242,-5644,-908,6532,-893,-1887,297,632,-1600,8038,-61,-213,-381,0,0,0,0,0,0,0,0,0,0,0,0
1122,2244,-5336,-1032,6678,-898,-1884,294,1172,-1742,8068,-64,-212,-387,0,0,0,0,0,0,0,0,0,0,0,0
1123,2246,-5444,-946,6524,-890,-1886,289,1150,-1464,7764,-63,-215,-385,0,0,0,0,0,0,0,0,0,0,0,0
1124,2248,-5332,-966,6768,-882,-1893,292,666,-1820,8092,-65,-213,-382,0,0,0,0,0,0,0,0,0,0,0,0
1125,2250,-5202,-1172,6552,-886,-1896,293,922,-1910,7802,-64,-213,-384,0,0,0,0,0,0,0,0,0,0,0,0
1126,2252,-5474,-1232,6314,-884,-1904,285,956,-1518,8102,-66,-214,-382,0,0,0,0,0,0,0,0,0,0,0,0
1127,2254,-5304,-1326,6706,-880,-1899,283,590,-1536,7920,-67,-216,-381,0,0,0,0,0,0,0,0,0,0,0,0
1128,2256,-5616,-1080,6234,-874,-1900,280,664,-1636,7928,-62,-219,-386,0,0,0,0,0,0,0,0,0,0,0,0
1129,2258,-5250,-648,6742,-878,-1903,278,954,-1924,7552,-52,-219,-383,0,0,0,0,0,0,0,0,0,0,0,0
1130,2260,-5150,-990,6390,-880,-1896,277,330,-2106,7802,-55,-216,-381,0,0,0,0,0,0,0,0,0,0,0,0
1131,2262,-5592,-1174,6610,-878,-1896,280,990,-1722,8234,-63,-215,-369,0,0,0,0,0,0,0,0,0,0,0,0
1132,2264,-5426,-1058,6482,-880,-1898,280,584,-1794,7820,-59,-215,-375,0,0,0,0,0,0,0,0,0,0,0,0
1133,2266,-5550,-1142,6412,-878,-1892,277,1244,-2064,8314,-50,-213,-379,0,0,0,0,0,0,0,0,0,0,0,0
1134,2268,-5540,-1212,6282,-879,-1881,278,506,-1916,8272,-44,-219,-379,0,0,0,0,0,0,0,0,0,0,0,0
1135,2270,-5256,-928,6396,-878,-1876,283,698,-1722,8150,-51,-219,-376,0,0,0,0,0,0,0,0,0,0,0,0
1136,2272,-5350,-1112,6496,-880,-1882,285,932,-1864,7736,-59,-214,-379,0,0,0,0,0,0,0,0,0,0,0,0
1137,2274,-5172,-1144,6184,-876,-1885,283,786,-2192,7680,-53,-208,-377,0,0,0,0,0,0,0,0,0,0,0,0
1138,2276,-5772,-1188,6302,-880,-1885,290,742,-1830,7776,-47,-208,-375,0,0,0,0,0,0,0,0,0,0,0,0
1139,2278,-5372,-1146,6424,-883,-1886,289,728,-1978,8010,-48,-210,-377,0,0,0,0,0,0,0,0,0,0,0,0
1140,2280,-5382,-958,6434,-878,-1882,284,688,-1944,7750,-43,-210,-377,0,0,0,0,0,0,0,0,0,0,0,0
1141,2282,-5490,-1230,6236,-880,-1889,281,670,-1888,8228,-40,-210,-379,0,0,0,0,0,0,0,0,0,0,0,0
1142,2284,-5454,-1424,6384,-888,-1889,283,754,-1626,8090,-46,-210,-376,0,0,0,0,0,0,0,0,0,0,0,0
1143,2286,-5266,-1006,6088,-891,-1881,287,632,-1296,7964,-43,-211,-384,0,0,0,0,0,0,0,0,0,0,0,0
1144,2288,-5220,-1144,6492,-892,-1886,288,670,-1634,7816,-35,-213,-394,0,0,0,0,0,0,0,0,0,0,0,0
1145,2290,-5428,-990,6324,-892,-1883,286,374,-1656,7770,-34,-218,-390,0,0,0,0,0,0,0,0,0,0,0,0
1146,2292,-5552,-1314,6012,-894,-1884,289,794,-1692,7706,-32,-218,-385,0,0,0,0,0,0,0,0,0,0,0,0
1147,2294,-5552,-1314,6012,-894,-1884,289,866,-1510,8118,-31,-215,-386,0,0,0,0,0,0,0,0,0,0,0,0
1148,2296,-5398,-1210,6316,-891,-1898,289,800,-1474,7804,-26,-215,-390,0,0,0,0,0,0,0,0,0,0,0,0
1149,2298,-5738,-1118,6482,-892,-1897,296,1072,-1972,7784,-24,-214,-394,0,0,0,0,0,0,0,0,0,0,0,0
1150,2300,-5428,-1428,6862,-899,-1897,292,758,-2146,7852,-30,-220,-392,0,0,0,0,0,0,0,0,0,0,0,0
1151,2302,-5410,-1062,6086,-900,-1899,291,930,-1804,7854,-28,-221,-396,0,0,0,0,0,0,0,0,0,0,0,0
1152,2304,-5428,-1048,6496,-894,-1902,290,492,-2032,8058,-25,-221,-395,0,0,0,0,0,0,0,0,0,0,0,0
1153,2306,-5474,-1106,6476,-894,-1906,296,610,-1662,7720,-23,-219,-397,0,0,0,0,0,0,0,0,0,0,0,0
1154,2308,-5278,-994,6428,-897,-1904,294,658,-1856,8074,-23,-219,-392,0,0,0,0,0,0,0,0,0,0,0,0
1155,2310,-5512,-1096,6408,-903,-1904,294,1030,-1738,7892,-27,-225,-388,0,0,0,0,0,0,0,0,0,0,0,0
1156,2312,-5358,-1398,6666,-902,-1906,294,628,-1878,7784,-30,-224,-390,0,0,0,0,0,0,0,0,0,0,0,0
1157,2314,-5440,-1248,6964,-896,-1910,292,722,-1352,8364,-31,-220,-399,0,0,0,0,0,0,0,0,0,0,0,0
1158,2316,-5328,-1372,6358,-900,-1903,286,648,-1818,8036,-26,-221,-399,0,0,0,0,0,0,0,0,0,0,0,0
1159,2318,-5272,-1128,6122,-902,-1893,284,1022,-1726,7876,-26,-222,-394,0,0,0,0,0,0,0,0,0,0,0,0
1160,2320,-5530,-1188,6334,-900,-1889,289,922,-1686,7998,-25,-221,-392,0,0,0,0,0,0,0,0,0,0,0,0
1161,2322,-5626,-1024,6262,-899,-1891,300,874,-1592,7834,-25,-217,-385,0,0,0,0,0,0,0,0,0,0,0,0
1162,2324,-5434,-896,6840,-906,-1892,300,810,-1464,8370,-25,-221,-387,0,0,0,0,0,0,0,0,0,0,0,0
1163,2326,-5342,-822,6306,-910,-1888,299,634,-1904,7748,-23,-224,-392,0,0,0,0,0,0,0,0,0,0,0,0
1164,2328,-5692,-1058,6440,-909,-1888,297,486,-1888,7990,-25,-230,-393,0,0,0,0,0,0,0,0,0,0,0,0
1165,2330,-5356,-934,6596,-905,-1895,296,454,-1648,7984,-26,-227,-392,0,0,0,0,0,0,0,0,0,0,0,0
1166,2332,-5426,-1186,6480,-908,-1892,292,478,-1888,7940,-31,-222,-384,0,0,0,0,0,0,0,0,0,0,0,0
1167,2334,-5282,-836,6440,-910,-1886,296,1124,-1426,8008,-34,-222,-378,0,0,0,0,0,0,0,0,0,0,0,0
1168,2336,-5574,-1078,6340,-912,-1883,293,1242,-1866,7838,-39,-233,-378,0,0,0,0,0,0,0,0,0,0,0,0
1169,2338,-5532,-1296,6356,-913,-1890,291,804,-1490,7980,-41,-234,-377,0,0,0,0,0,0,0,0,0,0,0,0
1170,2340,-5272,-920,6418,-912,-1886,287,1008,-1746,7766,-39,-227,-373,0,0,0,0,0,0,0,0,0,0,0,0
1171,2342,-5494,-1150,6564,-913,-1878,284,696,-1570,8014,-43,-223,-379,0,0,0,0,0,0,0,0,0,0,0,0
1172,2344,-5360,-1200,6480,-914,-1879,287,848,-1990,7898,-44,-229,-381,0,0,0,0,0,0,0,0,0,0,0,0
1173,2346,-5386,-982,6518,-904,-1878,291,892,-1948,7830,-40,-233,-375,0,0,0,0,0,0,0,0,0,0,0,0
1174,2348,-5192,-1170,6616,-903,-1881,289,576,-2066,8226,-38,-229,-373,0,0,0,0,0,0,0,0,0,0,0,0
1175,2350,-5306,-1120,6280,-901,-1889,284,1026,-2100,7736,-43,-225,-378,0,0,0,0,0,0,0,0,0,0,0,0
1176,2352,-5820,-1362,6336,-898,-1890,283,840,-1844,7756,-51,-224,-377,0,0,0,0,0,0,0,0,0,0,0,0
1177,2354,-5158,-902,6508,-892,-1888,287,714,-2038,7908,-53,-223,-378,0,0,0,0,0,0,0,0,0,0,0,0
1178,2356,-5546,-1072,6500,-893,-1891,285,766,-1826,8356,-55,-222,-374,0,0,0,0,0,0,0,0,0,0,0,0
1179,2358,-5486,-880,6186,-895,-1887,278,464,-1666,8154,-62,-226,-373,0,0,0,0,0,0,0,0,0,0,0,0
1180,2360,-5574,-1308,6222,-895,-1886,276,1044,-2350,8238,-59,-232,-378,0,0,0,0,0,0,0,0,0,0,0,0
1181,2362,-5338,-1058,6158,-894,-1895,271,1186,-1676,8018,-63,-232,-380,0,0,0,0,0,0,0,0,0,0,0,0
1182,2364,-5624,-894,6246,-890,-1896,272,660,-1870,8034,-61,-232,-377,0,0,0,0,0,0,0,0,0,0,0,0
1183,2366,-5392,-1034,6996,-889,-1893,277,660,-1672,7842,-60,-232,-376,0,0,0,0,0,0,0,0,0,0,0,0
1184,2368,-5426,-842,6220,-893,-1891,280,1138,-1704,8134,-64,-231,-377,0,0,0,0,0,0,0,0,0,0,0,0
1185,2370,-5460,-902,6368,-896,-1891,276,906,-1746,7646,-74,-230,-373,0,0,0,0,0,0,0,0,0,0,0,0
1186,2372,-5588,-1440,6430,-891,-1889,270,730,-2080,7860,-77,-225,-371,0,0,0,0,0,0,0,0,0,0,0,0
1187,2374,-5334,-856,6262,-895,-1885,269,374,-2108,7702,-78,-219,-371,0,0,0,0,0,0,0,0,0,0,0,0
1188,2376,-5468,-1480,6152,-903,-1890,262,566,-2256,7882,-82,-215,-366,0,0,0,0,0,0,0,0,0,0,0,0
1189,2378,-5364,-956,6310,-899,-1892,263,518,-1956,7738,-82,-214,-363,0,0,0,0,0,0,0,0,0,0,0,0
1190,2380,-5300,-1500,6190,-899,-1898,264,934,-1940,7512,-77,-218,-360,0,0,0,0,0,0,0,0,0,0,0,0
1191,2382,-5326,-1216,6178,-899,-1892,266,762,-2562,7864,-70,-220,-364,0,0,0,0,0,0,0,0,0,0,0,0
1192,2384,-5482,-1038,6288,-896,-1886,266,942,-1692,7962,-69,-221,-366,0,0,0,0,0,0,0,0,0,0,0,0
1193,2386,-5606,-1070,6708,-886,-1878,269,548,-1698,8058,-70,-223,-365,0,0,0,0,0,0,0,0,0,0,0,0
1194,2388,-5640,-872,6500,-885,-1876,270,454,-1800,7716,-66,-227,-353,0,0,0,0,0,0,0,0,0,0,0,0
1195,2390,-5976,-1334,6192,-890,-1879,272,496,-1782,8078,-63,-227,-350,0,0,0,0,0,0,0,0,0,0,0,0
1196,2392,-5480,-762,6724,-887,-1878,267,436,-1664,7800,-66,-225,-346,0,0,0,0,0,0,0,0,0,0,0,0
1197,2394,-5412,-1090,6322,-886,-1881,264,870,-2156,8200,-72,-231,-349,0,0,0,0,0,0,0,0,0,0,0,0
1198,2396,-5128,-1372,6610,-883,-1894,265,564,-2228,7880,-72,-235,-349,0,0,0,0,0,0,0,0,0,0,0,0
1199,2398,-5312,-1220,6442,-879,-1890,266,880,-1620,8040,-73,-231,-345,0,0,0,0,0,0,0,0,0,0,0,0
1200,2400,-5512,-1128,6426,-880,-1881,273,1034,-2012,8052,-68,-231,-343,0,0,0,0,0,0,0,0,0,0,0,0
1201,2402,-5658,-1108,6414,-880,-1879,279,834,-2010,8092,-65,-232,-351,0,0,0,0,0,0,0,0,0,0,0,0
1202,2404,-5816,-1146,6712,-878,-1892,279,824,-1770,8118,-75,-234,-351,0,0,0,0,0,0,0,0,0,0,0,0
1203,2406,-5494,-1114,6738,-877,-1903,279,1112,-2092,7726,-74,-232,-347,0,0,0,0,0,0,0,0,0,0,0,0
1204,2408,-5516,-792,6178,-876,-1903,277,514,-1856,7920,-77,-229,-346,0,0,0,0,0,0,0,0,0,0,0,0
1205,2410,-5162,-834,6484,-875,-1899,276,902,-1590,8000,-75,-224,-348,0,0,0,0,0,0,0,0,0,0,0,0
1206,2412,-5588,-826,6758,-881,-1894,285,1026,-1628,8348,-73,-228,-349,0,0,0,0,0,0,0,0,0,0,0,0
1207,2414,-5448,-1024,6246,-877,-1892,284,260,-1940,8036,-75,-229,-343,0,0,0,0,0,0,0,0,0,0,0,0
1208,2416,-5470,-1084,6390,-875,-1889,278,606,-1754,7750,-83,-230,-347,0,0,0,0,0,0,0,0,0,0,0,0
1209,2418,-5280,-760,6210,-886,-1889,275,374,-1868,8200,-90,-231,-350,0,0,0,0,0,0,0,0,0,0,0,0
1210,2420,-5196,-1404,6288,-890,-1900,277,596,-2174,7888,-91,-232,-348,0,0,0,0,0,0,0,0,0,0,0,0
1211,2422,-5498,-1012,6426,-883,-1899,278,964,-1838,8102,-95,-229,-344,0,0,0,0,0,0,0,0,0,0,0,0
1212,2424,-5648,-1128,6596,-885,-1891,280,950,-2060,7762,-88,-220,-354,0,0,0,0,0,0,0,0,0,0,0,0
1213,2426,-5260,-1198,6938,-892,-1884,276,952,-1894,8052,-85,-218,-353,0,0,0,0,0,0,0,0,0,0,0,0
1214,2428,-5546,-1348,6252,-889,-1885,273,866,-2046,8148,-95,-222,-348,0,0,0,0,0,0,0,0,0,0,0,0
1215,2430,-5544,-1150,5740,-883,-1891,274,956,-1834,7716,-99,-225,-349,0,0,0,0,0,0,0,0,0,0,0,0
1216,2432,-5362,-908,6464,-882,-1896,279,606,-1768,8282,-95,-222,-351,0,0,0,0,0,0,0,0,0,0,0,0
1217,2434,-5334,-1292,6248,-891,-1894,280,338,-1770,7596,-97,-221,-348,0,0,0,0,0,0,0,0,0,0,0,0
1218,2436,-5484,-936,6604,-889,-1891,284,824,-1734,7860,-92,-227,-346,0,0,0,0,0,0,0,0,0,0,0,0
1219,2438,-5632,-1282,6288,-878,-1901,285,916,-1686,7586,-93,-225,-354,0,0,0,0,0,0,0,0,0,0,0,0
1220,2440,-5194,-1108,6412,-880,-1902,285,908,-1608,8076,-95,-224,-351,0,0,0,0,0,0,0,0,0,0,0,0
1221,2442,-5388,-1036,6076,-887,-1905,287,810,-1626,7782,-96,-223,-348,0,0,0,0,0,0,0,0,0,0,0,0
1222,2444,-5216,-1256,6416,-894,-1907,292,584,-1764,8032,-92,-226,-353,0,0,0,0,0,0,0,0,0,0,0,0
1223,2446,-5434,-912,6312,-893,-1912,292,788,-1428,7908,-83,-225,-358,0,0,0,0,0,0,0,0,0,0,0,0
1224,2448,-5338,-1052,6374,-890,-1917,300,928,-1842,7732,-91,-222,-361,0,0,0,0,0,0,0,0,0,0,0,0
1225,2450,-5500,-1318,6568,-892,-1909,299,210,-1694,7944,-93,-218,-361,0,0,0,0,0,0,0,0,0,0,0,0
1226,2452,-5354,-1228,6380,-891,-1901,301,956,-1752,7790,-87,-218,-364,0,0,0,0,0,0,0,0,0,0,0,0
1227,2454,-5590,-820,6338,-890,-1907,303,838,-2106,7964,-86,-221,-357,0,0,0,0,0,0,0,0,0,0,0,0
1228,2456,-5548,-934,6192,-888,-1914,301,1290,-2290,8178,-78,-226,-355,0,0,0,0,0,0,0,0,0,0,0,0
1229,2458,-5504,-886,5926,-890,-1911,298,1018,-1940,8022,-73,-226,-357,0,0,0,0,0,0,0,0,0,0,0,0
1230,2460,-5764,-1278,6738,-895,-1903,301,562,-1654,7656,-78,-227,-359,0,0,0,0,0,0,0,0,0,0,0,0
1231,2461,-5558,-1160,6204,-890,-1905,299,582,-2108,7734,-82,-227,-362,0,0,0,0,0,0,0,0,0,0,0,0
1232,2463,-5522,-1360,6534,-880,-1899,299,604,-2032,8186,-84,-228,-365,0,0,0,0,0,0,0,0,0,0,0,0
1233,2465,-5126,-1078,6212,-880,-1895,299,876,-1790,8064,-84,-231,-364,0,0,0,0,0,0,0,0,0,0,0,0
1234,2467,-5308,-864,6266,-881,-1899,304,850,-1758,8146,-86,-237,-367,0,0,0,0,0,0,0,0,0,0,0,0
1235,2469,-5638,-1372,6142,-882,-1909,302,922,-1622,8082,-87,-240,-366,0,0,0,0,0,0,0,0,0,0,0,0
1236,2471,-5484,-888,6124,-886,-1916,299,490,-2448,8164,-91,-240,-363,0,0,0,0,0,0,0,0,0,0,0,0
1237,2473,-5612,-882,6224,-893,-1910,300,1228,-2010,7828,-90,-243,-363,0,0,0,0,0,0,0,0,0,0,0,0
1238,2475,-5198,-822,6178,-897,-1908,304,898,-2170,7886,-88,-238,-362,0,0,0,0,0,0,0,0,0,0,0,0
1239,2477,-5474,-1208,6282,-898,-1904,309,758,-1914,7914,-91,-239,-362,0,0,0,0,0,0,0,0,0,0,0,0
1240,2479,-5662,-964,6542,-890,-1901,312,822,-1828,8148,-88,-234,-361,0,0,0,0,0,0,0,0,0,0,0,0
1241,2481,-5800,-1060,6306,-891,-1906,310,1178,-1576,8326,-81,-225,-361,0,0,0,0,0,0,0,0,0,0,0,0
1242,2483,-5248,-1410,6406,-893,-1911,302,850,-1548,7968,-81,-224,-364,0,0,0,0,0,0,0,0,0,0,0,0
1243,2485,-5166,-1220,6228,-892,-1917,299,620,-1652,8196,-84,-220,-369,0,0,0,0,0,0,0,0,0,0,0,0
1244,2487,-5630,-870,6242,-897,-1919,299,878,-1920,8156,-84,-223,-372,0,0,0,0,0,0,0,0,0,0,0,0
1245,2489,-5694,-1138,6754,-893,-1920,301,848,-1620,8350,-82,-227,-372,0,0,0,0,0,0,0,0,0,0,0,0
1246,2491,-5426,-1006,6304,-893,-1906,302,1188,-2076,7718,-86,-231,-377,0,0,0,0,0,0,0,0,0,0,0,0
1247,2493,-5554,-1116,6452,-891,-1905,297,462,-2160,7838,-82,-234,-380,0,0,0,0,0,0,0,0,0,0,0,0
1248,2495,-5572,-1220,6536,-880,-1905,303,822,-1982,7986,-76,-233,-379,0,0,0,0,0,0,0,0,0,0,0,0
1249,2497,-5616,-1006,6510,-877,-1906,304,540,-1928,7818,-75,-233,-375,0,0,0,0,0,0,0,0,0,0,0,0
1250,2499,-5410,-1304,6646,-881,-1906,308,804,-2126,7806,-75,-230,-367,0,0,0,0,0,0,0,0,0,0,0,0
1251,2501,-5516,-1192,6016,-877,-1903,311,412,-2244,7706,-76,-234,-366,0,0,0,0,0,0,0,0,0,0,0,0
1252,2503,-5474,-1416,6800,-877,-1901,314,1024,-1718,7944,-79,-235,-365,0,0,0,0,0,0,0,0,0,0,0,0
1253,2505,-5282,-1148,6542,-883,-1904,313,926,-1822,7810,-84,-235,-358,0,0,0,0,0,0,0,0,0,0,0,0
1254,2507,-5516,-978,6556,-887,-1906,309,752,-2020,8060,-85,-232,-350,0,0,0,0,0,0,0,0,0,0,0,0
1255,2509,-5422,-1236,6520,-895,-1907,306,508,-1494,7816,-85,-237,-352,0,0,0,0,0,0,0,0,0,0,0,0
1256,2511,-5502,-1118,6306,-893,-1909,306,600,-1896,7624,-78,-232,-351,0,0,0,0,0,0,0,0,0,0,0,0
1257,2513,-5716,-984,6552,-889,-1913,306,1034,-1734,8080,-75,-230,-352,0,0,0,0,0,0,0,0,0,0,0,0
1258,2515,-5480,-960,6574,-889,-1906,301,704,-1710,7776,-80,-231,-351,0,0,0,0,0,0,0,0,0,0,0,0
1259,2517,-5212,-1180,6400,-892,-1899,300,588,-1742,7672,-80,-230,-352,0,0,0,0,0,0,0,0,0,0,0,0
1260,2519,-5560,-840,6330,-889,-1893,296,982,-1484,8098,-78,-236,-348,0,0,0,0,0,0,0,0,0,0,0,0
1261,2521,-5364,-810,6174,-890,-1897,296,1038,-1962,8234,-74,-238,-347,0,0,0,0,0,0,0,0,0,0,0,0
1262,2523,-5660,-1046,6508,-892,-1899,302,798,-2020,7844,-66,-234,-352,0,0,0,0,0,0,0,0,0,0,0,0
1263,2525,-5754,-1090,6638,-895,-1894,312,740,-1694,8166,-58,-232,-360,0,0,0,0,0,0,0,0,0,0,0,0
1264,2528,-5322,-968,6730,-894,-1892,315,408,-1910,8042,-59,-237,-362,0,0,0,0,0,0,0,0,0,0,0,0
1265,2530,-5348,-1144,6734,-891,-1897,322,446,-1774,7880,-60,-235,-364,0,0,0,0,0,0,0,0,0,0,0,0
1266,2531,-5524,-1296,6170,-886,-1892,318,616,-1928,7874,-56,-231,-367,0,0,0,0,0,0,0,0,0,0,0,0
1267,2533,-5566,-1104,6610,-888,-1889,321,940,-1688,7938,-48,-230,-370,0,0,0,0,0,0,0,0,0,0,0,0
1268,2535,-5216,-976,6486,-887,-1897,322,930,-2008,7980,-47,-232,-374,0,0,0,0,0,0,0,0,0,0,0,0
1269,2537,-5278,-1176,6502,-889,-1899,321,572,-1774,7980,-52,-229,-377,0,0,0,0,0,0,0,0,0,0,0,0
1270,2539,-5364,-1092,6300,-886,-1894,316,688,-1724,7876,-51,-227,-376,0,0,0,0,0,0,0,0,0,0,0,0
1271,2541,-5428,-1670,6400,-887,-1888,313,536,-1756,7912,-43,-224,-380,0,0,0,0,0,0,0,0,0,0,0,0
1272,2543,-5296,-896,6754,-890,-1886,314,832,-1742,7886,-45,-223,-376,0,0,0,0,0,0,0,0,0,0,0,0
1273,2545,-5386,-854,6460,-888,-1897,315,1044,-1754,7976,-46,-226,-374,0,0,0,0,0,0,0,0,0,0,0,0
1274,2547,-5244,-828,5812,-884,-1908,315,1078,-1860,7964,-51,-227,-368,0,0,0,0,0,0,0,0,0,0,0,0
1275,2549,-5282,-972,6442,-882,-1904,310,720,-1966,7930,-57,-221,-365,0,0,0,0,0,0,0,0,0,0,0,0
1276,2551,-5870,-696,6192,-886,-1900,306,1148,-2150,7928,-61,-223,-368,0,0,0,0,0,0,0,0,0,0,0,0
1277,2553,-5496,-940,6414,-884,-1902,306,1004,-1902,8018,-58,-224,-374,0,0,0,0,0,0,0,0,0,0,0,0
1278,2555,-5320,-824,6652,-883,-1908,310,1148,-2032,7932,-57,-224,-373,0,0,0,0,0,0,0,0,0,0,0,0
1279,2558,-5348,-992,6256,-882,-1908,306,796,-1524,7886,-63,-224,-367,0,0,0,0,0,0,0,0,0,0,0,0
1280,2559,-5292,-1544,6346,-883,-1908,298,986,-2040,7510,-64,-230,-368,0,0,0,0,0,0,0,0,0,0,0,0
