sample_count, ms, RAW_Acc X1[G], RAW_Acc Y1[G], RAW_Acc Z1[G], RAW_Gyro X1[deg/s], RAW_Gyro Y1[deg/s], RAW_Gyro Z1[deg/s], RAW_Acc X2[G], RAW_Acc Y2[G], RAW_Acc Z2[G], RAW_Gyro X2[deg/s], RAW_Gyro Y2[deg/s], RAW_Gyro Z2[deg/s], RAW_Acc X3[G], RAW_Acc Y3[G], RAW_Acc Z3[G], RAW_Gyro X3[deg/s], RAW_Gyro Y3[deg/s], RAW_Gyro Z3[deg/s], RAW_Acc X4[G], RAW_Acc Y4[G], RAW_Acc Z4[G], RAW_Gyro X4[deg/s], RAW_Gyro Y4[deg/s], RAW_Gyro Z4[deg/s]
0,0,-0.6953125,-0.12109375,0.79833984,987.084,972.64124,4.2900763,0.10424805,-0.19702148,0.9494629,999.4962,997.4351,994.229,0.0,0.0,0.0,0.0,0.0,0.0,0.0,0.0,0.0,0.0,0.0,0.0
1,2,-0.642334,-0.09716797,0.7368164,987.19086,972.7481,4.3206105,0.084228516,-0.2487793,1.0026855,999.46564,997.41986,994.2595,0.0,0.0,0.0,0.0,0.0,0.0,0.0,0.0,0.0,0.0,0.0,0.0
2,4,-0.6435547,-0.13916016,0.7597656,987.32825,972.7939,4.3053436,0.09838867,-0.24291992,0.9326172,999.4809,997.3435,994.1985,0.0,0.0,0.0,0.0,0.0,0.0,0.0,0.0,0.0,0.0,0.0,0.0
3,6,-0.69506836,-0.14355469,0.7614746,987.374,972.7481,4.335878,0.06225586,-0.2331543,0.9291992,999.603,997.313,994.1985,0.0,0.0,0.0,0.0,0.0,0.0,0.0,0.0,0.0,0.0,0.0,0.0
4,8,-0.6821289,-0.17529297,0.7741699,987.4351,972.8397,4.3511453,0.10522461,-0.21875,0.98828125,999.64886,997.46564,994.3206,0.0,0.0,0.0,0.0,0.0,0.0,0.0,0.0,0.0,0.0,0.0,0.0
5,10,-0.6586914,-0.11425781,0.7631836,987.3435,972.90076,4.442748,0.10668945,-0.21728516,0.96899414,999.6641,997.4351,994.397,0.0,0.0,0.0,0.0,0.0,0.0,0.0,0.0,0.0,0.0,0.0,0.0
6,12,-0.67626953,-0.13208008,0.7871094,987.3435,972.8244,4.4732823,0.09741211,-0.20581055,0.9680176,999.64886,997.3435,994.47327,0.0,0.0,0.0,0.0,0.0,0.0,0.0,0.0,0.0,0.0,0.0,0.0
7,14,-0.703125,-0.15942383,0.8288574,987.38934,972.67175,4.4274807,0.04638672,-0.15771484,1.026123,999.6336,997.3435,994.5496,0.0,0.0,0.0,0.0,0.0,0.0,0.0,0.0,0.0,0.0,0.0,0.0
8,16,-0.6804199,-0.18017578,0.79541016,987.4046,972.626,4.3511453,0.13720703,-0.2434082,0.9902344,999.58777,997.374,994.50385,0.0,0.0,0.0,0.0,0.0,0.0,0.0,0.0,0.0,0.0,0.0,0.0
9,18,-0.69018555,-0.15820312,0.74072266,987.374,972.58014,4.2137403,0.12573242,-0.19921875,0.96240234,999.6336,997.32825,994.47327,0.0,0.0,0.0,0.0,0.0,0.0,0.0,0.0,0.0,0.0,0.0,0.0
10,20,-0.6640625,-0.16333008,0.748291,987.35876,972.53436,4.183206,0.12475586,-0.24487305,0.93530273,999.52673,997.2825,994.47327,0.0,0.0,0.0,0.0,0.0,0.0,0.0,0.0,0.0,0.0,0.0,0.0
11,22,-0.640625,-0.07519531,0.81884766,987.46564,972.4885,4.1679387,0.1237793,-0.19848633,0.9177246,999.58777,997.3435,994.5191,0.0,0.0,0.0,0.0,0.0,0.0,0.0,0.0,0.0,0.0,0.0,0.0
12,24,-0.64038086,-0.16113281,0.7844238,987.38934,972.47327,4.1679387,0.09887695,-0.21166992,0.97875977,999.69464,997.4046,994.5191,0.0,0.0,0.0,0.0,0.0,0.0,0.0,0.0,0.0,0.0,0.0,0.0
13,26,-0.63842773,-0.1381836,0.7429199,987.26715,972.47327,4.2137403,0.027832031,-0.24804688,0.95703125,999.7405,997.38934,994.458,0.0,0.0,0.0,0.0,0.0,0.0,0.0,0.0,0.0,0.0,0.0,0.0
14,29,-0.69311523,-0.15478516,0.78344727,987.2214,972.44275,4.183206,0.08935547,-0.21875,1.0109863,999.78625,997.35876,994.4885,0.0,0.0,0.0,0.0,0.0,0.0,0.0,0.0,0.0,0.0,0.0,0.0
15,30,-0.61694336,-0.13647461,0.798584,987.2519,972.3359,4.10687,0.11035156,-0.22021484,0.9350586,999.8626,997.374,994.3664,0.0,0.0,0.0,0.0,0.0,0.0,0.0,0.0,0.0,0.0,0.0,0.0
16,32,-0.6945801,-0.14331055,0.7663574,987.2825,972.397,4.0610685,0.099121094,-0.19335938,0.99560547,999.93896,997.4351,994.3664,0.0,0.0,0.0,0.0,0.0,0.0,0.0,0.0,0.0,0.0,0.0,0.0
17,34,-0.66674805,-0.14941406,0.76342773,987.26715,972.4885,4.0610685,0.10961914,-0.23608398,0.96069336,999.9542,997.41986,994.397,0.0,0.0,0.0,0.0,0.0,0.0,0.0,0.0,0.0,0.0,0.0,0.0
18,36,-0.6706543,-0.10205078,0.77978516,987.2977,972.41223,4.0916033,0.08666992,-0.19335938,0.99316406,999.9542,997.374,994.4275,0.0,0.0,0.0,0.0,0.0,0.0,0.0,0.0,0.0,0.0,0.0,0.0
19,38,-0.6369629,-0.1694336,0.80029297,987.374,972.2595,4.152672,0.091308594,-0.25878906,1.0061035,999.93896,997.3435,994.458,0.0,0.0,0.0,0.0,0.0,0.0,0.0,0.0,0.0,0.0,0.0,0.0
20,40,-0.63256836,-0.16113281,0.83984375,987.35876,972.16797,4.1984735,0.061523438,-0.23266602,0.94091797,1000.0,997.35876,994.44275,0.0,0.0,0.0,0.0,0.0,0.0,0.0,0.0,0.0,0.0,0.0,0.0
21,42,-0.6501465,-0.10620117,0.75390625,987.35876,972.16797,4.2900763,0.08129883,-0.17260742,0.98876953,999.93896,997.2519,994.5191,0.0,0.0,0.0,0.0,0.0,0.0,0.0,0.0,0.0,0.0,0.0,0.0
22,44,-0.6687012,-0.13427734,0.7729492,987.4351,972.1985,4.2442746,0.1015625,-0.23413086,0.9772949,999.9542,997.145,994.5649,0.0,0.0,0.0,0.0,0.0,0.0,0.0,0.0,0.0,0.0,0.0,0.0
23,46,-0.6538086,-0.12011719,0.78515625,987.61835,972.229,4.2137403,0.075683594,-0.25952148,0.986084,999.9695,997.1756,994.6107,0.0,0.0,0.0,0.0,0.0,0.0,0.0,0.0,0.0,0.0,0.0,0.0
24,48,-0.64624023,-0.14208984,0.78515625,987.7099,972.2595,4.2137403,0.11328125,-0.2619629,0.97998047,999.8168,997.2519,994.7176,0.0,0.0,0.0,0.0,0.0,0.0,0.0,0.0,0.0,0.0,0.0,0.0
25,50,-0.72387695,-0.13549805,0.7607422,987.6336,972.30536,4.1679387,0.092285156,-0.25,0.9519043,999.8321,997.313,994.87024,0.0,0.0,0.0,0.0,0.0,0.0,0.0,0.0,0.0,0.0,0.0,0.0
26,52,-0.6779785,-0.15844727,0.80615234,987.7099,972.35114,4.2442746,0.09667969,-0.26000977,0.9770508,999.8931,997.2977,994.8855,0.0,0.0,0.0,0.0,0.0,0.0,0.0,0.0,0.0,0.0,0.0,0.0
27,54,-0.65063477,-0.11816406,0.7441406,987.6794,972.30536,4.3053436,0.083740234,-0.19311523,0.90625,999.9542,997.32825,994.916,0.0,0.0,0.0,0.0,0.0,0.0,0.0,0.0,0.0,0.0,0.0,0.0
28,56,-0.67333984,-0.12060547,0.82250977,987.64886,972.3206,4.259542,0.09057617,-0.24169922,0.9807129,999.9695,997.35876,994.9924,0.0,0.0,0.0,0.0,0.0,0.0,0.0,0.0,0.0,0.0,0.0,0.0
29,58,-0.67089844,-0.13232422,0.7429199,987.55725,972.397,4.3206105,0.025390625,-0.21508789,0.9589844,999.93896,997.32825,995.0229,0.0,0.0,0.0,0.0,0.0,0.0,0.0,0.0,0.0,0.0,0.0,0.0
30,60,-0.6713867,-0.11206055,0.7080078,987.55725,972.50385,4.412214,0.059570312,-0.25073242,0.98168945,999.93896,997.26715,995.03815,0.0,0.0,0.0,0.0,0.0,0.0,0.0,0.0,0.0,0.0,0.0,0.0
31,62,-0.66796875,-0.16308594,0.76342773,987.55725,972.5649,4.3053436,0.099853516,-0.23364258,0.96728516,1000.0611,997.23663,994.9924,0.0,0.0,0.0,0.0,0.0,0.0,0.0,0.0,0.0,0.0,0.0,0.0
32,64,-0.6760254,-0.1418457,0.78027344,987.61835,972.4885,4.3206105,0.10668945,-0.27001953,0.935791,1000.15265,997.2061,994.8855,0.0,0.0,0.0,0.0,0.0,0.0,0.0,0.0,0.0,0.0,0.0,0.0
33,66,-0.6828613,-0.14331055,0.74902344,987.6794,972.397,4.3511453,0.05444336,-0.2783203,0.96972656,1000.16797,997.2214,994.8244,0.0,0.0,0.0,0.0,0.0,0.0,0.0,0.0,0.0,0.0,0.0,0.0
34,68,-0.7104492,-0.1550293,0.7729492,987.5725,972.41223,4.442748,0.17089844,-0.21826172,0.94873047,1000.229,997.26715,994.7786,0.0,0.0,0.0,0.0,0.0,0.0,0.0,0.0,0.0,0.0,0.0,0.0
35,70,-0.6760254,-0.15527344,0.7585449,987.603,972.44275,4.4580154,0.16015625,-0.22924805,0.99975586,1000.3206,997.2214,994.7176,0.0,0.0,0.0,0.0,0.0,0.0,0.0,0.0,0.0,0.0,0.0,0.0
36,72,-0.6591797,-0.1550293,0.75756836,987.7252,972.38165,4.5343513,0.111328125,-0.20288086,0.98461914,1000.30536,997.1603,994.7786,0.0,0.0,0.0,0.0,0.0,0.0,0.0,0.0,0.0,0.0,0.0,0.0
37,74,-0.66552734,-0.11230469,0.78393555,987.69464,972.397,4.5648856,0.12036133,-0.24560547,0.9777832,1000.2901,997.26715,994.76337,0.0,0.0,0.0,0.0,0.0,0.0,0.0,0.0,0.0,0.0,0.0,0.0
38,76,-0.6940918,-0.15698242,0.81225586,987.7099,972.4275,4.6412215,0.095458984,-0.23925781,0.9797363,1000.2901,997.23663,994.7481,0.0,0.0,0.0,0.0,0.0,0.0,0.0,0.0,0.0,0.0,0.0,0.0
39,78,-0.64404297,-0.15820312,0.75512695,987.8015,972.38165,4.671756,0.087402344,-0.21557617,0.95825195,1000.2595,997.12976,994.7481,0.0,0.0,0.0,0.0,0.0,0.0,0.0,0.0,0.0,0.0,0.0,0.0
40,80,-0.6743164,-0.11254883,0.7775879,987.7099,972.2901,4.5496182,0.06225586,-0.1953125,0.98461914,1000.3359,997.12976,994.76337,0.0,0.0,0.0,0.0,0.0,0.0,0.0,0.0,0.0,0.0,0.0,0.0
41,82,-0.64453125,-0.13793945,0.82666016,987.7099,972.2901,4.5648856,0.08666992,-0.2565918,0.9265137,1000.41223,997.1145,994.7481,0.0,0.0,0.0,0.0,0.0,0.0,0.0,0.0,0.0,0.0,0.0,0.0
42,84,-0.6101074,-0.1418457,0.75,987.75574,972.3206,4.5801525,0.09887695,-0.22485352,0.9831543,1000.4275,997.145,994.7023,0.0,0.0,0.0,0.0,0.0,0.0,0.0,0.0,0.0,0.0,0.0,0.0
43,86,-0.6101074,-0.1418457,0.75,987.75574,972.3206,4.5801525,0.11352539,-0.23828125,0.9589844,1000.4275,997.1603,994.67175,0.0,0.0,0.0,0.0,0.0,0.0,0.0,0.0,0.0,0.0,0.0,0.0
44,88,-0.6706543,-0.15014648,0.8154297,987.771,972.4275,4.442748,0.0859375,-0.21264648,0.9663086,1000.47327,997.145,994.7786,0.0,0.0,0.0,0.0,0.0,0.0,0.0,0.0,0.0,0.0,0.0,0.0
45,90,-0.6616211,-0.13623047,0.798584,987.6794,972.44275,4.3969464,0.13330078,-0.2019043,1.013916,0.030534351,997.1603,994.67175,0.0,0.0,0.0,0.0,0.0,0.0,0.0,0.0,0.0,0.0,0.0,0.0
46,92,-0.6660156,-0.18725586,0.8352051,987.6794,972.53436,4.3206105,0.12084961,-0.21411133,0.99658203,0.10687023,997.23663,994.5191,0.0,0.0,0.0,0.0,0.0,0.0,0.0,0.0,0.0,0.0,0.0,0.0
47,94,-0.71606445,-0.15454102,0.7001953,987.7252,972.5496,4.3511453,0.096191406,-0.19213867,0.9597168,0.15267175,997.2825,994.4275,0.0,0.0,0.0,0.0,0.0,0.0,0.0,0.0,0.0,0.0,0.0,0.0
48,96,-0.70214844,-0.119140625,0.7939453,987.7252,972.44275,4.3969464,0.123046875,-0.2475586,0.9777832,0.091603056,997.2214,994.50385,0.0,0.0,0.0,0.0,0.0,0.0,0.0,0.0,0.0,0.0,0.0,0.0
49,98,-0.6755371,-0.09790039,0.78637695,987.75574,972.4885,4.3206105,0.09716797,-0.19921875,0.93237305,0.045801528,997.2061,994.41223,0.0,0.0,0.0,0.0,0.0,0.0,0.0,0.0,0.0,0.0,0.0,0.0
50,100,-0.6315918,-0.17260742,0.80200195,987.64886,972.67175,4.335878,0.09790039,-0.26123047,0.9604492,0.061068702,997.2825,994.229,0.0,0.0,0.0,0.0,0.0,0.0,0.0,0.0,0.0,0.0,0.0,0.0
51,102,-0.6652832,-0.14941406,0.7668457,987.61835,972.80914,4.3816795,0.10620117,-0.22436523,0.9645996,0.030534351,997.2825,994.27484,0.0,0.0,0.0,0.0,0.0,0.0,0.0,0.0,0.0,0.0,0.0,0.0
52,104,-0.6921387,-0.14868164,0.7775879,987.6794,972.76337,4.3816795,0.060058594,-0.20947266,0.9904785,0.030534351,997.26715,994.2901,0.0,0.0,0.0,0.0,0.0,0.0,0.0,0.0,0.0,0.0,0.0,0.0
53,106,-0.6821289,-0.16186523,0.8117676,987.603,972.7786,4.335878,0.06689453,-0.24731445,0.95043945,0.10687023,997.2825,994.15265,0.0,0.0,0.0,0.0,0.0,0.0,0.0,0.0,0.0,0.0,0.0,0.0
54,108,-0.657959,-0.16040039,0.7536621,987.5115,972.73285,4.3511453,0.10595703,-0.24780273,0.9802246,0.19847329,997.2825,994.12213,0.0,0.0,0.0,0.0,0.0,0.0,0.0,0.0,0.0,0.0,0.0,0.0
55,110,-0.66625977,-0.12402344,0.74853516,987.4962,972.7786,4.335878,0.10913086,-0.19018555,1.0117188,0.18320611,997.2825,994.15265,0.0,0.0,0.0,0.0,0.0,0.0,0.0,0.0,0.0,0.0,0.0,0.0
56,112,-0.66625977,-0.12402344,0.74853516,987.4962,972.7786,4.335878,0.15893555,-0.22143555,0.97631836,0.091603056,997.2214,994.21375,0.0,0.0,0.0,0.0,0.0,0.0,0.0,0.0,0.0,0.0,0.0,0.0
57,114,-0.64331055,-0.14526367,0.7375488,987.52673,972.8244,4.3816795,0.076416016,-0.27197266,0.9291992,0.19847329,997.23663,994.24426,0.0,0.0,0.0,0.0,0.0,0.0,0.0,0.0,0.0,0.0,0.0,0.0
58,116,-0.71118164,-0.10058594,0.7824707,987.4962,972.8244,4.3511453,0.10253906,-0.19506836,0.96069336,0.29007635,997.2519,994.30536,0.0,0.0,0.0,0.0,0.0,0.0,0.0,0.0,0.0,0.0,0.0,0.0
59,118,-0.6555176,-0.13842773,0.7753906,987.46564,972.7481,4.3816795,0.07397461,-0.20361328,0.9680176,0.22900763,997.23663,994.3359,0.0,0.0,0.0,0.0,0.0,0.0,0.0,0.0,0.0,0.0,0.0,0.0
60,120,-0.7038574,-0.14477539,0.79174805,987.4962,972.626,4.4580154,0.087646484,-0.2836914,0.94506836,0.13740458,997.2519,994.3664,0.0,0.0,0.0,0.0,0.0,0.0,0.0,0.0,0.0,0.0,0.0,0.0
61,122,-0.6972656,-0.1862793,0.75439453,987.46564,972.64124,4.4274807,0.056884766,-0.28271484,0.92871094,0.091603056,997.32825,994.458,0.0,0.0,0.0,0.0,0.0,0.0,0.0,0.0,0.0,0.0,0.0,0.0
62,124,-0.6635742,-0.17382812,0.7512207,987.374,972.58014,4.4732823,0.12670898,-0.17822266,1.0087891,0.030534351,997.32825,994.44275,0.0,0.0,0.0,0.0,0.0,0.0,0.0,0.0,0.0,0.0,0.0,0.0
63,126,-0.6833496,-0.13208008,0.7553711,987.35876,972.5954,4.4885497,0.052246094,-0.2121582,0.98291016,0.091603056,997.41986,994.4885,0.0,0.0,0.0,0.0,0.0,0.0,0.0,0.0,0.0,0.0,0.0,0.0
64,128,-0.67529297,-0.14941406,0.7705078,987.2825,972.6107,4.412214,0.088378906,-0.23291016,1.0039062,0.16793893,997.4809,994.53436,0.0,0.0,0.0,0.0,0.0,0.0,0.0,0.0,0.0,0.0,0.0,0.0
65,130,-0.6875,-0.12133789,0.8017578,987.2977,972.50385,4.412214,0.083984375,-0.20751953,0.98535156,0.122137405,997.38934,994.626,0.0,0.0,0.0,0.0,0.0,0.0,0.0,0.0,0.0,0.0,0.0,0.0
66,132,-0.6418457,-0.10083008,0.78515625,987.32825,972.458,4.4274807,0.06323242,-0.23388672,0.9838867,0.061068702,997.4046,994.626,0.0,0.0,0.0,0.0,0.0,0.0,0.0,0.0,0.0,0.0,0.0,0.0
67,134,-0.6845703,-0.118896484,0.7080078,987.23663,972.4885,4.3969464,0.07104492,-0.23754883,0.9716797,1000.4885,997.4809,994.64124,0.0,0.0,0.0,0.0,0.0,0.0,0.0,0.0,0.0,0.0,0.0,0.0
68,136,-0.6828613,-0.13378906,0.7451172,987.1603,972.41223,4.3816795,0.06567383,-0.24633789,0.9770508,1000.35114,997.4351,994.7176,0.0,0.0,0.0,0.0,0.0,0.0,0.0,0.0,0.0,0.0,0.0,0.0
69,138,-0.65405273,-0.1237793,0.7487793,987.23663,972.458,4.3206105,0.08984375,-0.22924805,0.96777344,1000.16797,997.4351,994.7481,0.0,0.0,0.0,0.0,0.0,0.0,0.0,0.0,0.0,0.0,0.0,0.0
70,140,-0.70043945,-0.1418457,0.81347656,987.32825,972.4885,4.2442746,0.059814453,-0.23217773,0.93310547,1000.1374,997.4504,994.7939,0.0,0.0,0.0,0.0,0.0,0.0,0.0,0.0,0.0,0.0,0.0,0.0
71,142,-0.6657715,-0.119384766,0.74194336,987.2825,972.6565,4.2748094,0.099121094,-0.27270508,0.9926758,1000.07635,997.4504,994.855,0.0,0.0,0.0,0.0,0.0,0.0,0.0,0.0,0.0,0.0,0.0,0.0
72,144,-0.64746094,-0.10913086,0.79541016,987.2519,972.7481,4.3511453,0.1328125,-0.17871094,0.9602051,999.98474,997.41986,994.90076,0.0,0.0,0.0,0.0,0.0,0.0,0.0,0.0,0.0,0.0,0.0,0.0
73,146,-0.68408203,-0.09277344,0.7709961,987.2977,972.67175,4.335878,0.07885742,-0.24414062,0.96435547,999.87787,997.46564,994.9924,0.0,0.0,0.0,0.0,0.0,0.0,0.0,0.0,0.0,0.0,0.0,0.0
74,148,-0.6542969,-0.12915039,0.7858887,987.2825,972.64124,4.2748094,0.075683594,-0.26367188,1.017334,999.84735,997.4809,995.084,0.0,0.0,0.0,0.0,0.0,0.0,0.0,0.0,0.0,0.0,0.0,0.0
75,150,-0.734375,-0.14624023,0.72753906,987.313,972.687,4.2137403,0.125,-0.2368164,0.9836426,999.9084,997.5115,995.145,0.0,0.0,0.0,0.0,0.0,0.0,0.0,0.0,0.0,0.0,0.0,0.0
76,152,-0.6542969,-0.16918945,0.74975586,987.38934,972.73285,4.2290077,0.095214844,-0.2409668,0.9814453,999.8168,997.4504,995.19086,0.0,0.0,0.0,0.0,0.0,0.0,0.0,0.0,0.0,0.0,0.0,0.0
77,154,-0.6418457,-0.14526367,0.74975586,987.2977,972.6107,4.3206105,0.07519531,-0.26464844,0.93896484,999.6336,997.4046,995.2061,0.0,0.0,0.0,0.0,0.0,0.0,0.0,0.0,0.0,0.0,0.0,0.0
78,156,-0.66918945,-0.13867188,0.7133789,987.313,972.53436,4.2748094,0.10083008,-0.19140625,0.9663086,999.603,997.38934,995.2214,0.0,0.0,0.0,0.0,0.0,0.0,0.0,0.0,0.0,0.0,0.0,0.0
79,158,-0.6953125,-0.14282227,0.76953125,987.35876,972.4275,4.2290077,0.12670898,-0.23388672,0.95874023,999.58777,997.35876,995.1756,0.0,0.0,0.0,0.0,0.0,0.0,0.0,0.0,0.0,0.0,0.0,0.0
80,160,-0.6542969,-0.13769531,0.7729492,987.4046,972.30536,4.259542,0.09765625,-0.19433594,1.0021973,999.5725,997.38934,995.09924,0.0,0.0,0.0,0.0,0.0,0.0,0.0,0.0,0.0,0.0,0.0,0.0
81,162,-0.6550293,-0.15234375,0.75756836,987.46564,972.3206,4.3511453,0.11352539,-0.2446289,0.9147949,999.6336,997.4351,995.0229,0.0,0.0,0.0,0.0,0.0,0.0,0.0,0.0,0.0,0.0,0.0,0.0
82,164,-0.67749023,-0.08911133,0.75634766,987.4351,972.21375,4.4274807,0.07543945,-0.21850586,1.0209961,999.771,997.4351,994.8855,0.0,0.0,0.0,0.0,0.0,0.0,0.0,0.0,0.0,0.0,0.0,0.0
83,166,-0.6855469,-0.092041016,0.79589844,987.2825,972.07635,4.4732823,0.10083008,-0.21508789,0.9343262,999.6641,997.3435,994.90076,0.0,0.0,0.0,0.0,0.0,0.0,0.0,0.0,0.0,0.0,0.0,0.0
84,168,-0.6201172,-0.14648438,0.74658203,987.145,972.1374,4.5496182,0.08984375,-0.24267578,0.98095703,999.4809,997.2977,994.9466,0.0,0.0,0.0,0.0,0.0,0.0,0.0,0.0,0.0,0.0,0.0,0.0
85,170,-0.6906738,-0.14916992,0.78881836,987.1756,972.07635,4.5038166,0.09375,-0.17138672,0.9580078,999.35876,997.26715,994.90076,0.0,0.0,0.0,0.0,0.0,0.0,0.0,0.0,0.0,0.0,0.0,0.0
86,172,-0.6308594,-0.119384766,0.73657227,987.19086,971.9695,4.5038166,0.079589844,-0.23120117,0.9621582,999.2825,997.2519,994.9313,0.0,0.0,0.0,0.0,0.0,0.0,0.0,0.0,0.0,0.0,0.0,0.0
87,174,-0.68969727,-0.11328125,0.7705078,987.1603,972.1069,4.4580154,0.10839844,-0.18310547,0.9760742,999.19086,997.2519,995.1145,0.0,0.0,0.0,0.0,0.0,0.0,0.0,0.0,0.0,0.0,0.0,0.0
88,176,-0.64868164,-0.118896484,0.79833984,987.09924,972.21375,4.4274807,0.107666016,-0.17993164,0.94799805,999.2977,997.2825,995.0076,0.0,0.0,0.0,0.0,0.0,0.0,0.0,0.0,0.0,0.0,0.0,0.0
89,178,-0.67456055,-0.13891602,0.7561035,987.12976,972.0305,4.4580154,0.0925293,-0.20043945,0.9711914,999.2977,997.2061,994.9466,0.0,0.0,0.0,0.0,0.0,0.0,0.0,0.0,0.0,0.0,0.0,0.0
90,180,-0.68066406,-0.14624023,0.74853516,987.23663,971.93896,4.4732823,0.14892578,-0.22680664,0.9963379,999.2977,997.1756,994.916,0.0,0.0,0.0,0.0,0.0,0.0,0.0,0.0,0.0,0.0,0.0,0.0
91,182,-0.68066406,-0.14624023,0.74853516,987.23663,971.93896,4.4732823,0.1430664,-0.21582031,1.0021973,999.3435,997.2214,994.8855,0.0,0.0,0.0,0.0,0.0,0.0,0.0,0.0,0.0,0.0,0.0,0.0
92,184,-0.6657715,-0.12084961,0.81689453,987.084,972.0,4.3969464,0.09448242,-0.17822266,1.0046387,999.4351,997.2214,994.80914,0.0,0.0,0.0,0.0,0.0,0.0,0.0,0.0,0.0,0.0,0.0,0.0
93,186,-0.7480469,-0.109375,0.7680664,986.9924,972.01526,4.335878,0.11328125,-0.2163086,0.96191406,999.41986,997.2061,994.80914,0.0,0.0,0.0,0.0,0.0,0.0,0.0,0.0,0.0,0.0,0.0,0.0
94,188,-0.66796875,-0.04638672,0.77368164,987.09924,971.9695,4.2442746,0.07446289,-0.2524414,0.9680176,999.4351,997.2825,994.87024,0.0,0.0,0.0,0.0,0.0,0.0,0.0,0.0,0.0,0.0,0.0,0.0
95,190,-0.6569824,-0.14208984,0.81274414,987.145,972.0305,4.2900763,0.10546875,-0.19360352,0.9760742,999.35876,997.2214,994.80914,0.0,0.0,0.0,0.0,0.0,0.0,0.0,0.0,0.0,0.0,0.0,0.0
96,192,-0.6796875,-0.115234375,0.77124023,987.084,972.15265,4.2137403,0.064208984,-0.25561523,0.9362793,999.38934,997.1603,994.87024,0.0,0.0,0.0,0.0,0.0,0.0,0.0,0.0,0.0,0.0,0.0,0.0
97,194,-0.64501953,-0.11645508,0.7529297,987.145,972.12213,4.335878,0.060058594,-0.2541504,0.9267578,999.4351,997.1603,994.87024,0.0,0.0,0.0,0.0,0.0,0.0,0.0,0.0,0.0,0.0,0.0,0.0
98,196,-0.66503906,-0.12231445,0.7819824,987.2519,972.21375,4.335878,0.14111328,-0.25610352,0.9645996,999.32825,997.19086,994.90076,0.0,0.0,0.0,0.0,0.0,0.0,0.0,0.0,0.0,0.0,0.0,0.0
99,198,-0.6911621,-0.123291016,0.7739258,987.2977,972.07635,4.412214,0.091552734,-0.23803711,0.9758301,999.2825,997.1756,994.8855,0.0,0.0,0.0,0.0,0.0,0.0,0.0,0.0,0.0,0.0,0.0,0.0
100,200,-0.6542969,-0.13696289,0.7597656,987.2519,972.24426,4.442748,0.12426758,-0.18017578,0.95458984,999.32825,997.1603,994.7939,0.0,0.0,0.0,0.0,0.0,0.0,0.0,0.0,0.0,0.0,0.0,0.0
101,202,-0.65185547,-0.09057617,0.7873535,987.2977,972.24426,4.3969464,0.12084961,-0.19091797,0.98657227,999.26715,997.1145,994.8244,0.0,0.0,0.0,0.0,0.0,0.0,0.0,0.0,0.0,0.0,0.0,0.0
102,204,-0.6599121,-0.10253906,0.75024414,987.313,972.229,4.2748094,0.104003906,-0.20336914,0.98046875,999.2061,997.09924,994.7939,0.0,0.0,0.0,0.0,0.0,0.0,0.0,0.0,0.0,0.0,0.0,0.0
103,206,-0.65649414,-0.1508789,0.8178711,987.2214,972.2595,4.10687,0.053466797,-0.22070312,0.97094727,999.1756,997.09924,994.8855,0.0,0.0,0.0,0.0,0.0,0.0,0.0,0.0,0.0,0.0,0.0,0.0
104,208,-0.64453125,-0.12988281,0.81396484,987.1603,972.4275,4.1374044,0.13671875,-0.22558594,0.9628906,999.2061,997.12976,994.9313,0.0,0.0,0.0,0.0,0.0,0.0,0.0,0.0,0.0,0.0,0.0,0.0
105,210,-0.654541,-0.13598633,0.7932129,987.145,972.47327,4.1221375,0.03515625,-0.19262695,0.9614258,999.084,996.9771,994.9771,0.0,0.0,0.0,0.0,0.0,0.0,0.0,0.0,0.0,0.0,0.0,0.0
106,212,-0.685791,-0.11621094,0.73999023,987.145,972.5191,4.152672,0.052001953,-0.24731445,0.9379883,999.084,996.916,994.9466,0.0,0.0,0.0,0.0,0.0,0.0,0.0,0.0,0.0,0.0,0.0,0.0
107,214,-0.6862793,-0.10083008,0.8039551,987.1603,972.5649,4.2137403,0.0859375,-0.23657227,0.99121094,999.0687,996.9924,994.9313,0.0,0.0,0.0,0.0,0.0,0.0,0.0,0.0,0.0,0.0,0.0,0.0
108,216,-0.67041016,-0.13305664,0.80908203,987.1145,972.6107,4.183206,0.06933594,-0.19311523,0.9873047,999.05347,996.8855,994.9313,0.0,0.0,0.0,0.0,0.0,0.0,0.0,0.0,0.0,0.0,0.0,0.0
109,218,-0.6777344,-0.12084961,0.77734375,987.09924,972.7481,4.1984735,0.080322266,-0.22973633,0.96362305,998.96185,996.8397,994.9924,0.0,0.0,0.0,0.0,0.0,0.0,0.0,0.0,0.0,0.0,0.0,0.0
110,220,-0.6340332,-0.13427734,0.7060547,987.1145,972.7786,4.2900763,0.12695312,-0.21118164,0.9863281,998.9771,996.8855,995.0076,0.0,0.0,0.0,0.0,0.0,0.0,0.0,0.0,0.0,0.0,0.0,0.0
111,222,-0.66796875,-0.1340332,0.7434082,987.1603,972.855,4.3206105,0.08227539,-0.23608398,0.9589844,998.9313,996.9771,995.0076,0.0,0.0,0.0,0.0,0.0,0.0,0.0,0.0,0.0,0.0,0.0,0.0
112,224,-0.65478516,-0.15722656,0.8232422,987.2519,972.7939,4.412214,0.095947266,-0.20117188,0.9550781,999.05347,997.0076,994.9924,0.0,0.0,0.0,0.0,0.0,0.0,0.0,0.0,0.0,0.0,0.0,0.0
113,226,-0.6958008,-0.1274414,0.7531738,987.26715,972.67175,4.412214,0.055664062,-0.24926758,0.9501953,998.96185,996.9313,994.916,0.0,0.0,0.0,0.0,0.0,0.0,0.0,0.0,0.0,0.0,0.0,0.0
114,228,-0.6516113,-0.14355469,0.7546387,987.1756,972.7481,4.4274807,0.1027832,-0.20043945,0.9719238,998.9466,996.9924,994.90076,0.0,0.0,0.0,0.0,0.0,0.0,0.0,0.0,0.0,0.0,0.0,0.0
115,230,-0.6599121,-0.119140625,0.7871094,987.12976,972.7786,4.4274807,0.07128906,-0.20361328,1.0009766,998.90076,997.05347,994.9313,0.0,0.0,0.0,0.0,0.0,0.0,0.0,0.0,0.0,0.0,0.0,0.0
116,232,-0.6748047,-0.15649414,0.76293945,987.1603,972.855,4.442748,0.14208984,-0.23901367,0.95947266,998.96185,997.084,994.9313,0.0,0.0,0.0,0.0,0.0,0.0,0.0,0.0,0.0,0.0,0.0,0.0
117,234,-0.6748047,-0.15649414,0.76293945,987.1603,972.855,4.442748,0.099365234,-0.19799805,0.9987793,998.9924,997.1756,994.916,0.0,0.0,0.0,0.0,0.0,0.0,0.0,0.0,0.0,0.0,0.0,0.0
118,236,-0.66625977,-0.140625,0.76586914,987.2214,973.084,4.412214,0.14916992,-0.21435547,0.9802246,998.9924,997.09924,994.9466,0.0,0.0,0.0,0.0,0.0,0.0,0.0,0.0,0.0,0.0,0.0,0.0
119,238,-0.70092773,-0.13012695,0.8010254,987.2977,972.90076,4.442748,0.118652344,-0.25830078,0.9567871,999.03815,997.084,994.9771,0.0,0.0,0.0,0.0,0.0,0.0,0.0,0.0,0.0,0.0,0.0,0.0
120,240,-0.66137695,-0.1381836,0.7885742,987.12976,972.7786,4.5038166,0.12792969,-0.24487305,0.9885254,999.09924,997.145,995.0687,0.0,0.0,0.0,0.0,0.0,0.0,0.0,0.0,0.0,0.0,0.0,0.0
121,242,-0.65893555,-0.1418457,0.8154297,987.0687,972.7481,4.3511453,0.1262207,-0.23901367,0.96972656,999.05347,997.145,995.23663,0.0,0.0,0.0,0.0,0.0,0.0,0.0,0.0,0.0,0.0,0.0,0.0
122,244,-0.66967773,-0.15258789,0.7714844,987.0687,972.87024,4.366412,0.0637207,-0.18554688,0.9719238,999.12976,997.1145,995.19086,0.0,0.0,0.0,0.0,0.0,0.0,0.0,0.0,0.0,0.0,0.0,0.0
123,246,-0.6875,-0.075683594,0.7993164,987.2061,972.8244,4.3969464,0.103759766,-0.21582031,0.96240234,999.0687,997.05347,995.19086,0.0,0.0,0.0,0.0,0.0,0.0,0.0,0.0,0.0,0.0,0.0,0.0
124,248,-0.66796875,-0.14916992,0.8034668,987.23663,972.7786,4.4274807,0.07104492,-0.23461914,0.986084,999.0687,997.05347,995.2519,0.0,0.0,0.0,0.0,0.0,0.0,0.0,0.0,0.0,0.0,0.0,0.0
125,250,-0.6604004,-0.15844727,0.75097656,987.26715,972.7481,4.4580154,0.09741211,-0.24291992,0.9592285,999.0687,997.084,995.32825,0.0,0.0,0.0,0.0,0.0,0.0,0.0,0.0,0.0,0.0,0.0,0.0
126,252,-0.6672363,-0.10058594,0.7512207,987.2214,972.67175,4.3206105,0.091552734,-0.24780273,0.9628906,999.145,997.12976,995.2214,0.0,0.0,0.0,0.0,0.0,0.0,0.0,0.0,0.0,0.0,0.0,0.0
127,254,-0.6645508,-0.13842773,0.73535156,987.23663,972.6107,4.335878,0.07910156,-0.15820312,0.9604492,999.2519,997.1145,995.2061,0.0,0.0,0.0,0.0,0.0,0.0,0.0,0.0,0.0,0.0,0.0,0.0
128,256,-0.6750488,-0.09448242,0.7758789,987.35876,972.7176,4.3969464,0.09472656,-0.20874023,1.0046387,999.3435,997.09924,995.2214,0.0,0.0,0.0,0.0,0.0,0.0,0.0,0.0,0.0,0.0,0.0,0.0
129,258,-0.6359863,-0.15991211,0.81933594,987.374,972.87024,4.412214,0.09643555,-0.1694336,0.9785156,999.41986,997.2061,995.0687,0.0,0.0,0.0,0.0,0.0,0.0,0.0,0.0,0.0,0.0,0.0,0.0
130,260,-0.6513672,-0.122802734,0.8017578,987.3435,973.0229,4.335878,0.10864258,-0.22265625,0.9567871,999.55725,997.145,994.90076,0.0,0.0,0.0,0.0,0.0,0.0,0.0,0.0,0.0,0.0,0.0,0.0
131,262,-0.64575195,-0.14038086,0.78930664,987.3435,973.0687,4.2900763,0.06982422,-0.2290039,0.9753418,999.542,997.084,994.9771,0.0,0.0,0.0,0.0,0.0,0.0,0.0,0.0,0.0,0.0,0.0,0.0
132,264,-0.6479492,-0.15527344,0.7265625,987.2977,972.90076,4.183206,0.1184082,-0.23144531,0.96875,999.58777,997.09924,994.9466,0.0,0.0,0.0,0.0,0.0,0.0,0.0,0.0,0.0,0.0,0.0,0.0
133,266,-0.67285156,-0.15649414,0.83496094,987.23663,972.8244,4.1221375,0.10498047,-0.21020508,0.95874023,999.7405,997.1603,994.90076,0.0,0.0,0.0,0.0,0.0,0.0,0.0,0.0,0.0,0.0,0.0,0.0
134,268,-0.6699219,-0.12866211,0.8251953,987.145,972.90076,4.1679387,0.029541016,-0.19140625,0.96606445,999.8168,997.19086,994.916,0.0,0.0,0.0,0.0,0.0,0.0,0.0,0.0,0.0,0.0,0.0,0.0
135,270,-0.68310547,-0.12939453,0.7531738,987.12976,972.8244,4.1679387,0.12866211,-0.20996094,0.96069336,999.93896,997.1756,994.8855,0.0,0.0,0.0,0.0,0.0,0.0,0.0,0.0,0.0,0.0,0.0,0.0
136,272,-0.68774414,-0.13964844,0.7561035,987.145,972.80914,4.1679387,0.09082031,-0.18359375,0.9260254,1000.01526,997.1603,994.916,0.0,0.0,0.0,0.0,0.0,0.0,0.0,0.0,0.0,0.0,0.0,0.0
137,274,-0.7023926,-0.16552734,0.7714844,987.1756,972.80914,4.10687,0.099365234,-0.21923828,0.95874023,1000.01526,997.19086,994.90076,0.0,0.0,0.0,0.0,0.0,0.0,0.0,0.0,0.0,0.0,0.0,0.0
138,276,-0.6921387,-0.13745117,0.7705078,987.1756,972.80914,4.0305343,0.07885742,-0.2602539,1.0100098,1000.01526,997.2825,994.8244,0.0,0.0,0.0,0.0,0.0,0.0,0.0,0.0,0.0,0.0,0.0,0.0
139,278,-0.66137695,-0.118652344,0.78222656,987.2825,972.7176,4.0152674,0.115234375,-0.23046875,0.9609375,999.98474,997.2825,994.7786,0.0,0.0,0.0,0.0,0.0,0.0,0.0,0.0,0.0,0.0,0.0,0.0
140,280,-0.6711426,-0.08544922,0.7746582,987.23663,972.626,3.9694657,0.111083984,-0.21801758,0.9868164,1000.07635,997.3435,994.73285,0.0,0.0,0.0,0.0,0.0,0.0,0.0,0.0,0.0,0.0,0.0,0.0
141,282,-0.66748047,-0.08911133,0.7727051,987.19086,972.7023,4.0,0.08227539,-0.2055664,0.99902344,1000.1832,997.3435,994.6107,0.0,0.0,0.0,0.0,0.0,0.0,0.0,0.0,0.0,0.0,0.0,0.0
142,284,-0.69189453,-0.104003906,0.7932129,987.2214,972.7786,4.0152674,0.064453125,-0.26489258,0.9394531,1000.2901,997.2977,994.6107,0.0,0.0,0.0,0.0,0.0,0.0,0.0,0.0,0.0,0.0,0.0,0.0
143,286,-0.64819336,-0.08496094,0.78881836,987.374,972.76337,4.0305343,0.12866211,-0.20776367,0.95288086,1000.35114,997.23663,994.5191,0.0,0.0,0.0,0.0,0.0,0.0,0.0,0.0,0.0,0.0,0.0,0.0
144,288,-0.64819336,-0.08496094,0.78881836,987.374,972.76337,4.0305343,0.13378906,-0.18530273,0.920166,1000.2901,997.23663,994.5191,0.0,0.0,0.0,0.0,0.0,0.0,0.0,0.0,0.0,0.0,0.0,0.0
145,290,-0.6542969,-0.115722656,0.76416016,987.4046,972.7023,4.0305343,0.10107422,-0.21850586,1.0012207,1000.1832,997.313,994.6107,0.0,0.0,0.0,0.0,0.0,0.0,0.0,0.0,0.0,0.0,0.0,0.0
146,292,-0.67163086,-0.107666016,0.77856445,987.35876,972.73285,4.1221375,0.09887695,-0.22143555,0.98779297,1000.21375,997.374,994.7023,0.0,0.0,0.0,0.0,0.0,0.0,0.0,0.0,0.0,0.0,0.0,0.0
147,294,-0.6791992,-0.13867188,0.751709,987.4046,972.7481,4.1221375,0.080078125,-0.21606445,0.9707031,1000.24426,997.35876,994.6565,0.0,0.0,0.0,0.0,0.0,0.0,0.0,0.0,0.0,0.0,0.0,0.0
148,296,-0.6369629,-0.106933594,0.7380371,987.4504,972.7939,4.152672,0.09887695,-0.23950195,0.9406738,1000.24426,997.374,994.53436,0.0,0.0,0.0,0.0,0.0,0.0,0.0,0.0,0.0,0.0,0.0,0.0
149,298,-0.6647949,-0.12207031,0.7102051,987.46564,972.7176,4.0458016,0.12109375,-0.25878906,0.94189453,1000.24426,997.4046,994.5496,0.0,0.0,0.0,0.0,0.0,0.0,0.0,0.0,0.0,0.0,0.0,0.0
150,300,-0.6496582,-0.08666992,0.7219238,987.374,972.8244,3.9847329,0.038085938,-0.1899414,0.96435547,1000.229,997.4809,994.58014,0.0,0.0,0.0,0.0,0.0,0.0,0.0,0.0,0.0,0.0,0.0,0.0
151,302,-0.67700195,-0.118896484,0.75097656,987.3435,972.90076,4.0152674,0.06542969,-0.24731445,0.9729004,1000.16797,997.4351,994.7786,0.0,0.0,0.0,0.0,0.0,0.0,0.0,0.0,0.0,0.0,0.0,0.0
152,304,-0.6347656,-0.13110352,0.78808594,987.374,972.96185,4.076336,0.09863281,-0.21948242,0.9699707,1000.0916,997.38934,994.7786,0.0,0.0,0.0,0.0,0.0,0.0,0.0,0.0,0.0,0.0,0.0,0.0
153,306,-0.67285156,-0.09838867,0.7578125,987.374,972.8397,4.1221375,0.09887695,-0.23364258,0.96484375,1000.1374,997.4046,994.855,0.0,0.0,0.0,0.0,0.0,0.0,0.0,0.0,0.0,0.0,0.0,0.0
154,308,-0.68725586,-0.12060547,0.7570801,987.4046,972.8397,4.10687,0.1105957,-0.23583984,0.9291992,1000.12213,997.3435,994.9313,0.0,0.0,0.0,0.0,0.0,0.0,0.0,0.0,0.0,0.0,0.0,0.0
155,310,-0.6738281,-0.16308594,0.78759766,987.4046,973.09924,4.1984735,0.103027344,-0.17773438,0.9428711,1000.0916,997.2977,994.9466,0.0,0.0,0.0,0.0,0.0,0.0,0.0,0.0,0.0,0.0,0.0,0.0
156,312,-0.63427734,-0.1430664,0.79541016,987.52673,973.0687,4.152672,0.06762695,-0.22729492,0.97094727,1000.12213,997.2214,994.8855,0.0,0.0,0.0,0.0,0.0,0.0,0.0,0.0,0.0,0.0,0.0,0.0
157,314,-0.63427734,-0.1430664,0.79541016,987.52673,973.0687,4.152672,0.095458984,-0.27172852,0.95532227,1000.12213,997.1756,994.8855,0.0,0.0,0.0,0.0,0.0,0.0,0.0,0.0,0.0,0.0,0.0,0.0
158,316,-0.6459961,-0.10888672,0.8129883,987.4809,972.96185,4.076336,0.10864258,-0.19458008,0.9421387,1000.0458,997.19086,994.9924,0.0,0.0,0.0,0.0,0.0,0.0,0.0,0.0,0.0,0.0,0.0,0.0
159,318,-0.63623047,-0.107666016,0.8215332,987.374,972.916,4.0458016,0.06518555,-0.24121094,0.9836426,1000.07635,997.2825,995.09924,0.0,0.0,0.0,0.0,0.0,0.0,0.0,0.0,0.0,0.0,0.0,0.0
160,320,-0.6557617,-0.11791992,0.734375,987.3435,972.80914,4.0152674,0.07373047,-0.2529297,0.9633789,1000.0458,997.2214,995.09924,0.0,0.0,0.0,0.0,0.0,0.0,0.0,0.0,0.0,0.0,0.0,0.0
161,322,-0.6623535,-0.10083008,0.75561523,987.4046,972.7023,4.0916033,0.10424805,-0.2434082,0.9692383,1000.1069,997.145,995.12976,0.0,0.0,0.0,0.0,0.0,0.0,0.0,0.0,0.0,0.0,0.0,0.0
162,324,-0.6628418,-0.15478516,0.8100586,987.2519,972.76337,4.1984735,0.08325195,-0.19189453,1.0048828,1000.1374,997.1756,995.19086,0.0,0.0,0.0,0.0,0.0,0.0,0.0,0.0,0.0,0.0,0.0,0.0
163,326,-0.6616211,-0.14331055,0.7307129,987.2214,972.9313,4.259542,0.10522461,-0.21069336,0.9602051,1000.27484,997.26715,995.1145,0.0,0.0,0.0,0.0,0.0,0.0,0.0,0.0,0.0,0.0,0.0,0.0
164,328,-0.71240234,-0.1538086,0.7685547,987.23663,972.96185,4.2748094,0.095703125,-0.21679688,0.9675293,1000.3359,997.26715,995.12976,0.0,0.0,0.0,0.0,0.0,0.0,0.0,0.0,0.0,0.0,0.0,0.0
165,330,-0.6994629,-0.12597656,0.828125,987.23663,972.7786,4.2137403,0.056152344,-0.21801758,1.003418,1000.2901,997.2214,995.0687,0.0,0.0,0.0,0.0,0.0,0.0,0.0,0.0,0.0,0.0,0.0,0.0
166,332,-0.6647949,-0.12890625,0.79785156,987.2061,972.7786,4.183206,0.13256836,-0.21411133,0.9951172,1000.24426,997.3435,995.03815,0.0,0.0,0.0,0.0,0.0,0.0,0.0,0.0,0.0,0.0,0.0,0.0
167,334,-0.64941406,-0.14355469,0.7363281,987.12976,972.7786,4.183206,0.034423828,-0.23022461,0.986084,1000.30536,997.26715,994.9313,0.0,0.0,0.0,0.0,0.0,0.0,0.0,0.0,0.0,0.0,0.0,0.0
168,336,-0.6503906,-0.13378906,0.7597656,987.12976,972.855,4.1221375,0.08642578,-0.26611328,0.9680176,1000.229,997.26715,994.90076,0.0,0.0,0.0,0.0,0.0,0.0,0.0,0.0,0.0,0.0,0.0,0.0
169,338,-0.6586914,-0.122802734,0.75878906,987.19086,972.76337,4.10687,0.12011719,-0.23120117,0.93896484,1000.2901,997.1756,994.73285,0.0,0.0,0.0,0.0,0.0,0.0,0.0,0.0,0.0,0.0,0.0,0.0
170,340,-0.66381836,-0.13378906,0.796875,987.1145,972.8244,4.1679387,0.06347656,-0.2331543,0.96728516,1000.229,997.1145,994.7939,0.0,0.0,0.0,0.0,0.0,0.0,0.0,0.0,0.0,0.0,0.0,0.0
171,342,-0.6569824,-0.19067383,0.80566406,987.03815,972.87024,4.2290077,0.10449219,-0.26660156,0.97924805,1000.16797,997.1145,994.7939,0.0,0.0,0.0,0.0,0.0,0.0,0.0,0.0,0.0,0.0,0.0,0.0
172,344,-0.6677246,-0.17138672,0.79052734,987.05347,972.80914,4.2137403,0.08935547,-0.2097168,0.9724121,1000.24426,997.2061,994.855,0.0,0.0,0.0,0.0,0.0,0.0,0.0,0.0,0.0,0.0,0.0,0.0
173,346,-0.6586914,-0.088134766,0.75219727,987.12976,972.76337,4.2137403,0.12036133,-0.24902344,0.99853516,1000.397,997.1756,994.80914,0.0,0.0,0.0,0.0,0.0,0.0,0.0,0.0,0.0,0.0,0.0,0.0
174,348,-0.7023926,-0.1237793,0.7753906,987.1756,972.8244,4.2900763,0.09326172,-0.17871094,0.99438477,1000.4275,997.1603,994.7023,0.0,0.0,0.0,0.0,0.0,0.0,0.0,0.0,0.0,0.0,0.0,0.0
175,350,-0.6682129,-0.1550293,0.74658203,987.1603,972.916,4.2442746,0.09863281,-0.24780273,0.95947266,1000.44275,997.2061,994.5649,0.0,0.0,0.0,0.0,0.0,0.0,0.0,0.0,0.0,0.0,0.0,0.0
176,352,-0.6855469,-0.15698242,0.7783203,987.145,973.0076,4.2900763,0.072509766,-0.28759766,0.9682617,1000.4275,997.2214,994.64124,0.0,0.0,0.0,0.0,0.0,0.0,0.0,0.0,0.0,0.0,0.0,0.0
177,354,-0.69091797,-0.14746094,0.7717285,987.2825,972.916,4.3816795,0.07763672,-0.22290039,0.9494629,1000.35114,997.19086,994.687,0.0,0.0,0.0,0.0,0.0,0.0,0.0,0.0,0.0,0.0,0.0,0.0
178,356,-0.6574707,-0.1381836,0.79785156,987.2977,972.80914,4.366412,0.083496094,-0.21411133,0.9489746,1000.27484,997.12976,994.64124,0.0,0.0,0.0,0.0,0.0,0.0,0.0,0.0,0.0,0.0,0.0,0.0
179,358,-0.6530762,-0.15844727,0.7392578,987.1756,972.76337,4.366412,0.08666992,-0.23608398,0.97631836,1000.24426,997.145,994.7176,0.0,0.0,0.0,0.0,0.0,0.0,0.0,0.0,0.0,0.0,0.0,0.0
180,360,-0.6657715,-0.15283203,0.7800293,987.145,972.80914,4.3511453,0.07763672,-0.24243164,0.9790039,1000.30536,997.12976,994.64124,0.0,0.0,0.0,0.0,0.0,0.0,0.0,0.0,0.0,0.0,0.0,0.0
181,362,-0.6525879,-0.15014648,0.78564453,987.1603,972.7939,4.3969464,0.047607422,-0.21704102,0.9616699,1000.38165,997.19086,994.6107,0.0,0.0,0.0,0.0,0.0,0.0,0.0,0.0,0.0,0.0,0.0,0.0
182,364,-0.68481445,-0.13476562,0.77001953,987.313,972.7481,4.3053436,0.053955078,-0.2241211,0.9753418,1000.35114,997.26715,994.6565,0.0,0.0,0.0,0.0,0.0,0.0,0.0,0.0,0.0,0.0,0.0,0.0
183,366,-0.7145996,-0.099121094,0.7727051,987.2214,972.687,4.3053436,0.07373047,-0.21679688,0.9909668,1000.30536,997.38934,994.687,0.0,0.0,0.0,0.0,0.0,0.0,0.0,0.0,0.0,0.0,0.0,0.0
184,368,-0.65893555,-0.14038086,0.7675781,987.145,972.7023,4.3816795,0.08618164,-0.19091797,0.9650879,1000.24426,997.38934,994.64124,0.0,0.0,0.0,0.0,0.0,0.0,0.0,0.0,0.0,0.0,0.0,0.0
185,370,-0.6413574,-0.13842773,0.79907227,987.2214,972.58014,4.3816795,0.0925293,-0.2055664,1.0119629,1000.1374,997.35876,994.5649,0.0,0.0,0.0,0.0,0.0,0.0,0.0,0.0,0.0,0.0,0.0,0.0
186,372,-0.6791992,-0.15405273,0.74072266,987.2061,972.41223,4.3816795,0.1081543,-0.22509766,0.9802246,1000.0305,997.2977,994.64124,0.0,0.0,0.0,0.0,0.0,0.0,0.0,0.0,0.0,0.0,0.0,0.0
187,374,-0.6657715,-0.11230469,0.7463379,987.145,972.50385,4.335878,0.103027344,-0.24194336,0.99243164,1000.01526,997.2519,994.6565,0.0,0.0,0.0,0.0,0.0,0.0,0.0,0.0,0.0,0.0,0.0,0.0
188,376,-0.6279297,-0.13476562,0.7475586,987.2519,972.626,4.335878,0.099121094,-0.2175293,0.9772949,1000.1374,997.32825,994.5496,0.0,0.0,0.0,0.0,0.0,0.0,0.0,0.0,0.0,0.0,0.0,0.0
189,378,-0.67871094,-0.14111328,0.7751465,987.374,972.6565,4.3816795,0.09277344,-0.24560547,1.0070801,1000.0458,997.35876,994.5649,0.0,0.0,0.0,0.0,0.0,0.0,0.0,0.0,0.0,0.0,0.0,0.0
190,380,-0.6599121,-0.10913086,0.75634766,987.4504,972.5649,4.3206105,0.036376953,-0.25341797,0.953125,1000.0458,997.3435,994.626,0.0,0.0,0.0,0.0,0.0,0.0,0.0,0.0,0.0,0.0,0.0,0.0
191,382,-0.6911621,-0.11669922,0.7570801,987.35876,972.5496,4.2900763,0.1340332,-0.1772461,0.9362793,1000.07635,997.3435,994.7023,0.0,0.0,0.0,0.0,0.0,0.0,0.0,0.0,0.0,0.0,0.0,0.0
192,384,-0.6804199,-0.09277344,0.74365234,987.26715,972.53436,4.2748094,0.11791992,-0.23901367,0.9667969,1000.0,997.35876,994.7786,0.0,0.0,0.0,0.0,0.0,0.0,0.0,0.0,0.0,0.0,0.0,0.0
193,386,-0.6533203,-0.14770508,0.7739258,987.2825,972.30536,4.3053436,0.08984375,-0.22290039,0.95825195,999.93896,997.35876,994.7481,0.0,0.0,0.0,0.0,0.0,0.0,0.0,0.0,0.0,0.0,0.0,0.0
194,388,-0.66552734,-0.18408203,0.75561523,987.2977,972.2901,4.3511453,0.096191406,-0.19946289,0.98828125,999.8321,997.2977,994.80914,0.0,0.0,0.0,0.0,0.0,0.0,0.0,0.0,0.0,0.0,0.0,0.0
195,390,-0.6611328,-0.16674805,0.7585449,987.2519,972.38165,4.442748,0.045654297,-0.20166016,0.98461914,999.75574,997.2825,994.855,0.0,0.0,0.0,0.0,0.0,0.0,0.0,0.0,0.0,0.0,0.0,0.0
196,392,-0.64697266,-0.13134766,0.82250977,987.2214,972.41223,4.4885497,0.1159668,-0.21899414,0.9921875,999.8931,997.26715,994.90076,0.0,0.0,0.0,0.0,0.0,0.0,0.0,0.0,0.0,0.0,0.0,0.0
197,394,-0.70874023,-0.10473633,0.76953125,987.1603,972.5191,4.442748,0.099365234,-0.21728516,0.9296875,999.8626,997.2214,994.90076,0.0,0.0,0.0,0.0,0.0,0.0,0.0,0.0,0.0,0.0,0.0,0.0
198,396,-0.60791016,-0.09033203,0.80126953,987.19086,972.53436,4.4274807,0.10864258,-0.21264648,0.9501953,999.7252,997.19086,994.9466,0.0,0.0,0.0,0.0,0.0,0.0,0.0,0.0,0.0,0.0,0.0,0.0
199,398,-0.68603516,-0.08154297,0.81933594,987.084,972.50385,4.442748,0.103515625,-0.20825195,0.9489746,999.7405,997.2061,994.9771,0.0,0.0,0.0,0.0,0.0,0.0,0.0,0.0,0.0,0.0,0.0,0.0
200,400,-0.704834,-0.1237793,0.7194824,987.0229,972.4885,4.4885497,0.056640625,-0.23779297,0.9736328,999.8931,997.26715,994.9313,0.0,0.0,0.0,0.0,0.0,0.0,0.0,0.0,0.0,0.0,0.0,0.0
201,403,-0.69921875,-0.15942383,0.8186035,987.0229,972.58014,4.5801525,0.05493164,-0.21362305,0.9506836,999.87787,997.2519,995.0076,0.0,0.0,0.0,0.0,0.0,0.0,0.0,0.0,0.0,0.0,0.0,0.0
202,404,-0.69921875,-0.15942383,0.8186035,987.0229,972.58014,4.5801525,0.119384766,-0.22802734,0.9597168,999.8321,997.2214,995.1603,0.0,0.0,0.0,0.0,0.0,0.0,0.0,0.0,0.0,0.0,0.0,0.0
203,406,-0.64697266,-0.12060547,0.72802734,987.09924,972.458,4.6106873,0.12133789,-0.19384766,0.98999023,999.78625,997.1145,995.084,0.0,0.0,0.0,0.0,0.0,0.0,0.0,0.0,0.0,0.0,0.0,0.0
204,408,-0.6677246,-0.13623047,0.7832031,986.9924,972.5954,4.5801525,0.08520508,-0.25634766,0.9440918,999.8168,997.1145,994.96185,0.0,0.0,0.0,0.0,0.0,0.0,0.0,0.0,0.0,0.0,0.0,0.0
205,410,-0.68115234,-0.18115234,0.7819824,986.9924,972.58014,4.59542,0.106933594,-0.2758789,0.9963379,999.78625,997.1145,995.0076,0.0,0.0,0.0,0.0,0.0,0.0,0.0,0.0,0.0,0.0,0.0,0.0
206,412,-0.6633301,-0.122558594,0.78125,987.145,972.5649,4.5648856,0.06591797,-0.19580078,0.97802734,999.6336,997.05347,995.05347,0.0,0.0,0.0,0.0,0.0,0.0,0.0,0.0,0.0,0.0,0.0,0.0
207,414,-0.66015625,-0.14208984,0.8186035,987.145,972.4885,4.5038166,0.052490234,-0.21655273,0.9741211,999.5725,997.0229,995.09924,0.0,0.0,0.0,0.0,0.0,0.0,0.0,0.0,0.0,0.0,0.0,0.0
208,416,-0.6401367,-0.11010742,0.8017578,987.23663,972.50385,4.442748,0.07348633,-0.25512695,0.95947266,999.55725,997.0076,995.1756,0.0,0.0,0.0,0.0,0.0,0.0,0.0,0.0,0.0,0.0,0.0,0.0
209,418,-0.6899414,-0.15283203,0.7524414,987.2977,972.76337,4.4885497,0.06933594,-0.20727539,0.9577637,999.52673,997.03815,995.145,0.0,0.0,0.0,0.0,0.0,0.0,0.0,0.0,0.0,0.0,0.0,0.0
210,420,-0.66748047,-0.15429688,0.8076172,987.2825,972.7481,4.4885497,0.13891602,-0.25195312,0.96875,999.6336,997.0076,995.0687,0.0,0.0,0.0,0.0,0.0,0.0,0.0,0.0,0.0,0.0,0.0,0.0
211,422,-0.6254883,-0.1496582,0.77441406,987.38934,972.7176,4.4274807,0.107177734,-0.20043945,0.95458984,999.603,996.9771,995.084,0.0,0.0,0.0,0.0,0.0,0.0,0.0,0.0,0.0,0.0,0.0,0.0
212,425,-0.6779785,-0.11743164,0.7895508,987.374,972.7481,4.366412,0.048095703,-0.20507812,0.99194336,999.4962,997.0229,995.145,0.0,0.0,0.0,0.0,0.0,0.0,0.0,0.0,0.0,0.0,0.0,0.0
213,426,-0.62768555,-0.15209961,0.7663574,987.374,972.73285,4.366412,0.09448242,-0.21435547,0.97094727,999.55725,997.03815,995.19086,0.0,0.0,0.0,0.0,0.0,0.0,0.0,0.0,0.0,0.0,0.0,0.0
214,428,-0.68774414,-0.1665039,0.7915039,987.5115,972.67175,4.366412,0.114990234,-0.22216797,0.9645996,999.4504,997.03815,995.26715,0.0,0.0,0.0,0.0,0.0,0.0,0.0,0.0,0.0,0.0,0.0,0.0
215,430,-0.6948242,-0.16137695,0.765625,987.542,972.58014,4.3816795,0.08959961,-0.22290039,0.9592285,999.4504,997.0687,995.26715,0.0,0.0,0.0,0.0,0.0,0.0,0.0,0.0,0.0,0.0,0.0,0.0
216,432,-0.67089844,-0.11987305,0.8293457,987.374,972.53436,4.3511453,0.084228516,-0.18432617,0.9484863,999.4351,997.09924,995.313,0.0,0.0,0.0,0.0,0.0,0.0,0.0,0.0,0.0,0.0,0.0,0.0
217,434,-0.6694336,-0.12670898,0.7019043,987.4351,972.626,4.366412,0.09399414,-0.21264648,0.9753418,999.4351,997.0687,995.26715,0.0,0.0,0.0,0.0,0.0,0.0,0.0,0.0,0.0,0.0,0.0,0.0
218,436,-0.6726074,-0.14746094,0.74560547,987.4504,972.5649,4.5038166,0.11816406,-0.2421875,0.95825195,999.46564,997.0076,995.1145,0.0,0.0,0.0,0.0,0.0,0.0,0.0,0.0,0.0,0.0,0.0,0.0
219,438,-0.67822266,-0.11767578,0.74853516,987.38934,972.458,4.4274807,0.09741211,-0.2175293,0.9707031,999.4046,997.084,995.12976,0.0,0.0,0.0,0.0,0.0,0.0,0.0,0.0,0.0,0.0,0.0,0.0
220,440,-0.67822266,-0.11767578,0.74853516,987.38934,972.458,4.4274807,0.13574219,-0.22485352,0.9511719,999.41986,997.19086,995.03815,0.0,0.0,0.0,0.0,0.0,0.0,0.0,0.0,0.0,0.0,0.0,0.0
221,442,-0.6604004,-0.12158203,0.7807617,987.3435,972.41223,4.519084,0.08129883,-0.2355957,0.95458984,999.374,997.2519,995.19086,0.0,0.0,0.0,0.0,0.0,0.0,0.0,0.0,0.0,0.0,0.0,0.0
222,444,-0.6772461,-0.13110352,0.8083496,987.2977,972.458,4.6412215,0.08520508,-0.17675781,0.9638672,999.374,997.2214,995.1756,0.0,0.0,0.0,0.0,0.0,0.0,0.0,0.0,0.0,0.0,0.0,0.0
223,446,-0.6765137,-0.12402344,0.7919922,987.374,972.4885,4.671756,0.119628906,-0.23486328,0.9667969,999.38934,997.1756,995.1603,0.0,0.0,0.0,0.0,0.0,0.0,0.0,0.0,0.0,0.0,0.0,0.0
224,448,-0.6789551,-0.1184082,0.8046875,987.374,972.4885,4.6870227,0.060546875,-0.22265625,0.9716797,999.4351,997.2061,995.12976,0.0,0.0,0.0,0.0,0.0,0.0,0.0,0.0,0.0,0.0,0.0,0.0
225,450,-0.6838379,-0.1472168,0.7434082,987.2825,972.4885,4.7328243,0.10131836,-0.24243164,0.9501953,999.4046,997.2061,995.1145,0.0,0.0,0.0,0.0,0.0,0.0,0.0,0.0,0.0,0.0,0.0,0.0
226,453,-0.6772461,-0.18847656,0.7504883,987.32825,972.53436,4.7328243,0.072509766,-0.16479492,0.9560547,999.374,997.1603,995.1145,0.0,0.0,0.0,0.0,0.0,0.0,0.0,0.0,0.0,0.0,0.0,0.0
227,455,-0.6772461,-0.18847656,0.7504883,987.32825,972.53436,4.7328243,0.10180664,-0.2536621,0.98706055,999.4046,997.1756,995.2214,0.0,0.0,0.0,0.0,0.0,0.0,0.0,0.0,0.0,0.0,0.0,0.0
228,457,-0.6726074,-0.15283203,0.78686523,987.4504,972.3664,4.6412215,0.072021484,-0.21728516,0.9807129,999.4809,997.2214,995.32825,0.0,0.0,0.0,0.0,0.0,0.0,0.0,0.0,0.0,0.0,0.0,0.0
229,459,-0.6125488,-0.1003418,0.7907715,987.313,972.397,4.5496182,0.115722656,-0.22802734,0.9707031,999.4962,997.19086,995.26715,0.0,0.0,0.0,0.0,0.0,0.0,0.0,0.0,0.0,0.0,0.0,0.0
230,461,-0.70996094,-0.14160156,0.7746582,987.26715,972.3359,4.5496182,0.056884766,-0.234375,0.95043945,999.4809,997.084,995.2977,0.0,0.0,0.0,0.0,0.0,0.0,0.0,0.0,0.0,0.0,0.0,0.0
231,463,-0.61743164,-0.16040039,0.7949219,987.4504,972.38165,4.59542,0.09301758,-0.27514648,0.97387695,999.5115,997.2061,995.35876,0.0,0.0,0.0,0.0,0.0,0.0,0.0,0.0,0.0,0.0,0.0,0.0
232,464,-0.68847656,-0.1640625,0.7739258,987.5725,972.30536,4.5801525,0.11767578,-0.22167969,0.9824219,999.6336,997.23663,995.313,0.0,0.0,0.0,0.0,0.0,0.0,0.0,0.0,0.0,0.0,0.0,0.0
233,467,-0.6882324,-0.11987305,0.7570801,987.4962,972.3206,4.5343513,0.106933594,-0.20336914,1.0119629,999.69464,997.2519,995.2061,0.0,0.0,0.0,0.0,0.0,0.0,0.0,0.0,0.0,0.0,0.0,0.0
234,469,-0.6452637,-0.072509766,0.79711914,987.4809,972.4275,4.5343513,0.07446289,-0.2409668,0.9758301,999.75574,997.2061,995.145,0.0,0.0,0.0,0.0,0.0,0.0,0.0,0.0,0.0,0.0,0.0,0.0
235,471,-0.64404297,-0.12426758,0.7529297,987.5115,972.38165,4.519084,0.09790039,-0.19580078,0.9797363,999.84735,997.1603,995.1145,0.0,0.0,0.0,0.0,0.0,0.0,0.0,0.0,0.0,0.0,0.0,0.0
236,473,-0.62719727,-0.12109375,0.79785156,987.55725,972.397,4.5343513,0.07495117,-0.2277832,0.9577637,999.8015,997.2061,995.084,0.0,0.0,0.0,0.0,0.0,0.0,0.0,0.0,0.0,0.0,0.0,0.0
237,474,-0.66845703,-0.16503906,0.7758789,987.5725,972.3664,4.5648856,0.06762695,-0.19946289,0.98828125,999.84735,997.2061,994.8855,0.0,0.0,0.0,0.0,0.0,0.0,0.0,0.0,0.0,0.0,0.0,0.0
238,476,-0.67529297,-0.16333008,0.78149414,987.542,972.2901,4.59542,0.14404297,-0.21582031,0.9760742,999.87787,997.1756,994.8397,0.0,0.0,0.0,0.0,0.0,0.0,0.0,0.0,0.0,0.0,0.0,0.0
239,477,-0.6298828,-0.13378906,0.77783203,987.542,972.1832,4.5343513,0.07519531,-0.26342773,0.9494629,999.9542,997.19086,994.8855,0.0,0.0,0.0,0.0,0.0,0.0,0.0,0.0,0.0,0.0,0.0,0.0
240,479,-0.6765137,-0.12963867,0.79345703,987.4962,972.1069,4.4885497,0.09472656,-0.22460938,0.9370117,1000.0611,997.2214,994.855,0.0,0.0,0.0,0.0,0.0,0.0,0.0,0.0,0.0,0.0,0.0,0.0
241,482,-0.68408203,-0.091308594,0.7651367,987.4962,972.1374,4.4732823,0.11645508,-0.24633789,1.0012207,1000.1069,997.2825,994.8244,0.0,0.0,0.0,0.0,0.0,0.0,0.0,0.0,0.0,0.0,0.0,0.0
242,484,-0.6821289,-0.15820312,0.7541504,987.4351,972.3206,4.4732823,0.1159668,-0.27929688,0.97021484,1000.0458,997.23663,994.8855,0.0,0.0,0.0,0.0,0.0,0.0,0.0,0.0,0.0,0.0,0.0,0.0
243,486,-0.67285156,-0.11816406,0.73706055,987.46564,972.41223,4.442748,0.15527344,-0.2006836,0.9592285,999.98474,997.1603,994.9771,0.0,0.0,0.0,0.0,0.0,0.0,0.0,0.0,0.0,0.0,0.0,0.0
244,488,-0.7038574,-0.12597656,0.79589844,987.4809,972.3664,4.3969464,0.078125,-0.19702148,0.99853516,999.8931,997.2061,995.084,0.0,0.0,0.0,0.0,0.0,0.0,0.0,0.0,0.0,0.0,0.0,0.0
245,490,-0.64746094,-0.11450195,0.74121094,987.41986,972.27484,4.4274807,0.12158203,-0.20996094,0.96728516,1000.0458,997.313,995.12976,0.0,0.0,0.0,0.0,0.0,0.0,0.0,0.0,0.0,0.0,0.0,0.0
246,492,-0.6694336,-0.15942383,0.75683594,987.35876,972.2595,4.412214,0.056640625,-0.20361328,0.9421387,999.93896,997.2825,995.26715,0.0,0.0,0.0,0.0,0.0,0.0,0.0,0.0,0.0,0.0,0.0,0.0
247,494,-0.6694336,-0.15942383,0.75683594,987.35876,972.2595,4.412214,0.15405273,-0.22753906,0.94555664,999.9084,997.2214,995.2519,0.0,0.0,0.0,0.0,0.0,0.0,0.0,0.0,0.0,0.0,0.0,0.0
248,496,-0.6665039,-0.114990234,0.73535156,987.374,972.35114,4.3206105,0.09887695,-0.22875977,0.98413086,999.9695,997.2061,995.084,0.0,0.0,0.0,0.0,0.0,0.0,0.0,0.0,0.0,0.0,0.0,0.0
249,498,-0.6750488,-0.1430664,0.7565918,987.4962,972.4275,4.2900763,0.076171875,-0.29125977,1.0124512,1000.0458,997.26715,995.0687,0.0,0.0,0.0,0.0,0.0,0.0,0.0,0.0,0.0,0.0,0.0,0.0
250,499,-0.6765137,-0.10595703,0.77197266,987.542,972.4275,4.3511453,0.063964844,-0.20751953,0.9428711,1000.07635,997.2519,995.084,0.0,0.0,0.0,0.0,0.0,0.0,0.0,0.0,0.0,0.0,0.0,0.0
251,502,-0.6467285,-0.12939453,0.7570801,987.4962,972.47327,4.3206105,0.103759766,-0.22973633,0.9616699,1000.0916,997.1756,994.9771,0.0,0.0,0.0,0.0,0.0,0.0,0.0,0.0,0.0,0.0,0.0,0.0
252,503,-0.6520996,-0.12817383,0.76708984,987.4046,972.50385,4.335878,0.11376953,-0.20800781,0.9638672,1000.0305,997.1756,994.9313,0.0,0.0,0.0,0.0,0.0,0.0,0.0,0.0,0.0,0.0,0.0,0.0
253,506,-0.6682129,-0.123046875,0.7351074,987.2977,972.2901,4.2900763,0.11352539,-0.2487793,0.93774414,1000.07635,997.23663,994.8855,0.0,0.0,0.0,0.0,0.0,0.0,0.0,0.0,0.0,0.0,0.0,0.0
254,508,-0.72680664,-0.111328125,0.80200195,987.1756,972.3206,4.2290077,0.10473633,-0.28637695,0.970459,1000.0916,997.26715,994.80914,0.0,0.0,0.0,0.0,0.0,0.0,0.0,0.0,0.0,0.0,0.0,0.0
255,509,-0.7229004,-0.13232422,0.7727051,987.19086,972.4275,4.2748094,0.06738281,-0.19946289,0.9562988,1000.0916,997.26715,994.8244,0.0,0.0,0.0,0.0,0.0,0.0,0.0,0.0,0.0,0.0,0.0,0.0
256,512,-0.6437988,-0.15063477,0.73046875,987.374,972.2595,4.2442746,0.06518555,-0.26123047,0.9921875,1000.1069,997.2825,994.7939,0.0,0.0,0.0,0.0,0.0,0.0,0.0,0.0,0.0,0.0,0.0,0.0
257,513,-0.6645508,-0.12719727,0.7783203,987.2825,972.3206,4.3053436,0.11206055,-0.22509766,0.954834,1000.16797,997.374,994.855,0.0,0.0,0.0,0.0,0.0,0.0,0.0,0.0,0.0,0.0,0.0,0.0
258,515,-0.6479492,-0.140625,0.798584,987.2061,972.3664,4.3053436,0.10449219,-0.25146484,0.9902344,1000.21375,997.46564,994.90076,0.0,0.0,0.0,0.0,0.0,0.0,0.0,0.0,0.0,0.0,0.0,0.0
259,517,-0.6401367,-0.19067383,0.78808594,987.2061,972.3664,4.2900763,0.060546875,-0.23120117,0.99365234,1000.1832,997.38934,994.90076,0.0,0.0,0.0,0.0,0.0,0.0,0.0,0.0,0.0,0.0,0.0,0.0
260,519,-0.6894531,-0.17260742,0.7980957,987.2214,972.3664,4.3511453,0.047851562,-0.25561523,0.95703125,1000.1832,997.374,994.9466,0.0,0.0,0.0,0.0,0.0,0.0,0.0,0.0,0.0,0.0,0.0,0.0
261,522,-0.6582031,-0.16455078,0.73657227,987.23663,972.30536,4.3206105,0.11010742,-0.24658203,0.9633789,1000.24426,997.374,994.916,0.0,0.0,0.0,0.0,0.0,0.0,0.0,0.0,0.0,0.0,0.0,0.0
262,524,-0.6801758,-0.107177734,0.8054199,987.26715,972.38165,4.2442746,0.09326172,-0.19384766,0.93481445,1000.30536,997.38934,994.8397,0.0,0.0,0.0,0.0,0.0,0.0,0.0,0.0,0.0,0.0,0.0,0.0
263,526,-0.6743164,-0.15576172,0.76220703,987.12976,972.30536,4.3053436,0.09887695,-0.17993164,0.98046875,1000.30536,997.32825,994.8244,0.0,0.0,0.0,0.0,0.0,0.0,0.0,0.0,0.0,0.0,0.0,0.0
264,528,-0.6582031,-0.1538086,0.78466797,987.2214,972.397,4.3816795,0.12768555,-0.1640625,0.9992676,1000.21375,997.2825,994.90076,0.0,0.0,0.0,0.0,0.0,0.0,0.0,0.0,0.0,0.0,0.0,0.0
265,530,-0.69262695,-0.13574219,0.75561523,987.313,972.1832,4.3511453,0.10986328,-0.20239258,0.9838867,1000.24426,997.2977,994.80914,0.0,0.0,0.0,0.0,0.0,0.0,0.0,0.0,0.0,0.0,0.0,0.0
266,532,-0.6791992,-0.13549805,0.7741699,987.38934,972.397,4.335878,0.064941406,-0.18432617,0.99438477,1000.3206,997.313,994.7481,0.0,0.0,0.0,0.0,0.0,0.0,0.0,0.0,0.0,0.0,0.0,0.0
267,534,-0.69311523,-0.12573242,0.78515625,987.35876,972.4885,4.3511453,0.09375,-0.19238281,0.99243164,1000.30536,997.32825,994.7176,0.0,0.0,0.0,0.0,0.0,0.0,0.0,0.0,0.0,0.0,0.0,0.0
268,535,-0.6604004,-0.17114258,0.7702637,987.3435,972.5649,4.3969464,0.084472656,-0.22460938,0.9680176,1000.27484,997.3435,994.7939,0.0,0.0,0.0,0.0,0.0,0.0,0.0,0.0,0.0,0.0,0.0,0.0
269,538,-0.6569824,-0.15332031,0.7624512,987.35876,972.458,4.3969464,0.091308594,-0.24169922,0.93237305,1000.2901,997.35876,994.80914,0.0,0.0,0.0,0.0,0.0,0.0,0.0,0.0,0.0,0.0,0.0,0.0
270,540,-0.6586914,-0.171875,0.7602539,987.2825,972.41223,4.4274807,0.15136719,-0.25195312,0.9682617,1000.2595,997.4504,994.8244,0.0,0.0,0.0,0.0,0.0,0.0,0.0,0.0,0.0,0.0,0.0,0.0
271,542,-0.66015625,-0.1352539,0.763916,987.2519,972.38165,4.4580154,0.09399414,-0.22705078,0.95996094,1000.3359,997.5115,994.7481,0.0,0.0,0.0,0.0,0.0,0.0,0.0,0.0,0.0,0.0,0.0,0.0
272,544,-0.6533203,-0.111816406,0.7841797,987.2214,972.2901,4.3969464,0.08227539,-0.22827148,0.9746094,1000.2901,997.4351,994.7481,0.0,0.0,0.0,0.0,0.0,0.0,0.0,0.0,0.0,0.0,0.0,0.0
273,546,-0.6401367,-0.125,0.78759766,987.313,972.2595,4.3206105,0.02734375,-0.2409668,0.9746094,1000.1985,997.374,994.7023,0.0,0.0,0.0,0.0,0.0,0.0,0.0,0.0,0.0,0.0,0.0,0.0
274,548,-0.6730957,-0.12133789,0.75756836,987.41986,972.2595,4.3816795,0.14819336,-0.2277832,0.9523926,1000.1832,997.35876,994.7939,0.0,0.0,0.0,0.0,0.0,0.0,0.0,0.0,0.0,0.0,0.0,0.0
275,550,-0.68725586,-0.15234375,0.7663574,987.32825,972.38165,4.4732823,0.11352539,-0.1850586,0.9880371,1000.1985,997.313,994.8244,0.0,0.0,0.0,0.0,0.0,0.0,0.0,0.0,0.0,0.0,0.0,0.0
276,552,-0.6435547,-0.118896484,0.751709,987.2977,972.41223,4.3969464,0.11303711,-0.22973633,0.9794922,1000.15265,997.2214,994.855,0.0,0.0,0.0,0.0,0.0,0.0,0.0,0.0,0.0,0.0,0.0,0.0
277,554,-0.67871094,-0.104003906,0.7531738,987.4046,972.4275,4.3206105,0.06762695,-0.21533203,0.96240234,1000.0458,997.1756,994.9771,0.0,0.0,0.0,0.0,0.0,0.0,0.0,0.0,0.0,0.0,0.0,0.0
278,556,-0.6984863,-0.14941406,0.7895508,987.41986,972.3359,4.2137403,0.09375,-0.1977539,0.9604492,1000.1069,997.19086,995.0076,0.0,0.0,0.0,0.0,0.0,0.0,0.0,0.0,0.0,0.0,0.0,0.0
279,558,-0.6418457,-0.115722656,0.82177734,987.4962,972.38165,4.152672,0.095214844,-0.25341797,0.9592285,1000.0916,997.2825,995.0229,0.0,0.0,0.0,0.0,0.0,0.0,0.0,0.0,0.0,0.0,0.0,0.0
280,560,-0.6538086,-0.15136719,0.7524414,987.46564,972.50385,4.183206,0.12719727,-0.24047852,0.94140625,999.9542,997.2825,995.09924,0.0,0.0,0.0,0.0,0.0,0.0,0.0,0.0,0.0,0.0,0.0,0.0
281,562,-0.6660156,-0.09106445,0.7597656,987.4504,972.44275,4.152672,0.12768555,-0.19677734,0.9777832,999.8931,997.1603,995.1603,0.0,0.0,0.0,0.0,0.0,0.0,0.0,0.0,0.0,0.0,0.0,0.0
282,564,-0.67041016,-0.15820312,0.7561035,987.5115,972.4275,4.2442746,0.07763672,-0.2553711,0.9628906,999.8321,997.2061,995.1145,0.0,0.0,0.0,0.0,0.0,0.0,0.0,0.0,0.0,0.0,0.0,0.0
283,566,-0.6845703,-0.14697266,0.75439453,987.46564,972.38165,4.2290077,0.053222656,-0.2866211,1.0100098,999.92365,997.32825,995.1145,0.0,0.0,0.0,0.0,0.0,0.0,0.0,0.0,0.0,0.0,0.0,0.0
284,568,-0.68603516,-0.12231445,0.78759766,987.374,972.47327,4.1984735,0.09790039,-0.25268555,0.93969727,999.9542,997.313,995.09924,0.0,0.0,0.0,0.0,0.0,0.0,0.0,0.0,0.0,0.0,0.0,0.0
285,570,-0.69433594,-0.14697266,0.79785156,987.32825,972.21375,4.259542,0.07788086,-0.22192383,1.0151367,1000.0611,997.1756,994.96185,0.0,0.0,0.0,0.0,0.0,0.0,0.0,0.0,0.0,0.0,0.0,0.0
286,572,-0.6813965,-0.14526367,0.7836914,987.313,972.2595,4.2900763,0.13500977,-0.21069336,0.94091797,1000.0305,997.12976,995.1145,0.0,0.0,0.0,0.0,0.0,0.0,0.0,0.0,0.0,0.0,0.0,0.0
287,574,-0.6953125,-0.16381836,0.7385254,987.313,972.27484,4.183206,0.046875,-0.23071289,0.97436523,999.93896,997.1603,995.2214,0.0,0.0,0.0,0.0,0.0,0.0,0.0,0.0,0.0,0.0,0.0,0.0
288,576,-0.642334,-0.13452148,0.7861328,987.26715,972.397,4.2137403,0.13208008,-0.19433594,0.9760742,999.92365,997.1756,995.12976,0.0,0.0,0.0,0.0,0.0,0.0,0.0,0.0,0.0,0.0,0.0,0.0
289,578,-0.6821289,-0.14575195,0.7241211,987.32825,972.3664,4.2137403,0.08862305,-0.19189453,0.986084,999.8168,997.1756,995.145,0.0,0.0,0.0,0.0,0.0,0.0,0.0,0.0,0.0,0.0,0.0,0.0
290,580,-0.70751953,-0.15478516,0.7832031,987.35876,972.397,4.259542,0.13354492,-0.19750977,0.9848633,999.8015,997.26715,995.1756,0.0,0.0,0.0,0.0,0.0,0.0,0.0,0.0,0.0,0.0,0.0,0.0
291,582,-0.6640625,-0.13354492,0.7626953,987.3435,972.50385,4.2900763,0.087890625,-0.19824219,1.0085449,999.8168,997.313,995.19086,0.0,0.0,0.0,0.0,0.0,0.0,0.0,0.0,0.0,0.0,0.0,0.0
292,584,-0.6608887,-0.13330078,0.7739258,987.2519,972.50385,4.2900763,0.05908203,-0.20800781,0.9914551,999.75574,997.313,995.2519,0.0,0.0,0.0,0.0,0.0,0.0,0.0,0.0,0.0,0.0,0.0,0.0
293,586,-0.65771484,-0.12695312,0.7565918,987.2061,972.4275,4.3206105,0.0925293,-0.23852539,0.9885254,999.64886,997.2214,995.38934,0.0,0.0,0.0,0.0,0.0,0.0,0.0,0.0,0.0,0.0,0.0,0.0
294,588,-0.673584,-0.12231445,0.8093262,987.313,972.24426,4.3816795,0.119140625,-0.20996094,0.9760742,999.603,997.2061,995.3435,0.0,0.0,0.0,0.0,0.0,0.0,0.0,0.0,0.0,0.0,0.0,0.0
295,590,-0.6296387,-0.14379883,0.78637695,987.23663,972.2595,4.2900763,0.076416016,-0.20825195,1.0014648,999.6641,997.23663,995.32825,0.0,0.0,0.0,0.0,0.0,0.0,0.0,0.0,0.0,0.0,0.0,0.0
296,592,-0.6594238,-0.13769531,0.7858887,987.1603,972.27484,4.183206,0.07299805,-0.23339844,1.0219727,999.69464,997.2977,995.2061,0.0,0.0,0.0,0.0,0.0,0.0,0.0,0.0,0.0,0.0,0.0,0.0
297,594,-0.6936035,-0.1496582,0.7739258,987.19086,972.2901,4.183206,0.092285156,-0.20947266,0.99609375,999.6336,997.313,995.1145,0.0,0.0,0.0,0.0,0.0,0.0,0.0,0.0,0.0,0.0,0.0,0.0
298,596,-0.7392578,-0.14135742,0.7709961,987.3435,972.27484,4.1679387,0.11621094,-0.20947266,1.0224609,999.55725,997.2061,995.1145,0.0,0.0,0.0,0.0,0.0,0.0,0.0,0.0,0.0,0.0,0.0,0.0
299,598,-0.64819336,-0.1784668,0.7832031,987.374,972.2595,4.259542,0.07104492,-0.24633789,0.96728516,999.542,997.1603,995.05347,0.0,0.0,0.0,0.0,0.0,0.0,0.0,0.0,0.0,0.0,0.0,0.0
300,600,-0.6538086,-0.14379883,0.7861328,987.26715,972.3359,4.2900763,0.08935547,-0.2084961,1.013916,999.61835,997.19086,994.96185,0.0,0.0,0.0,0.0,0.0,0.0,0.0,0.0,0.0,0.0,0.0,0.0
301,602,-0.7011719,-0.1159668,0.76123047,987.2214,972.2595,4.2137403,0.09375,-0.2421875,0.98046875,999.603,997.145,995.0229,0.0,0.0,0.0,0.0,0.0,0.0,0.0,0.0,0.0,0.0,0.0,0.0
302,604,-0.6669922,-0.1381836,0.7980957,987.26715,972.2595,4.183206,0.07519531,-0.22460938,0.9748535,999.5115,997.0076,994.9924,0.0,0.0,0.0,0.0,0.0,0.0,0.0,0.0,0.0,0.0,0.0,0.0
303,606,-0.69799805,-0.12817383,0.79956055,987.3435,972.24426,4.152672,0.095703125,-0.18676758,0.9680176,999.52673,997.05347,994.90076,0.0,0.0,0.0,0.0,0.0,0.0,0.0,0.0,0.0,0.0,0.0,0.0
304,608,-0.6447754,-0.095458984,0.7919922,987.3435,972.229,4.183206,0.095458984,-0.27026367,0.9682617,999.4809,997.0687,994.855,0.0,0.0,0.0,0.0,0.0,0.0,0.0,0.0,0.0,0.0,0.0,0.0
305,610,-0.6652832,-0.12597656,0.7775879,987.2214,972.27484,4.2137403,0.09667969,-0.23413086,0.9807129,999.38934,997.145,994.8244,0.0,0.0,0.0,0.0,0.0,0.0,0.0,0.0,0.0,0.0,0.0,0.0
306,612,-0.6694336,-0.1394043,0.7595215,987.313,972.229,4.183206,0.046142578,-0.20800781,0.96777344,999.38934,997.084,994.7481,0.0,0.0,0.0,0.0,0.0,0.0,0.0,0.0,0.0,0.0,0.0,0.0
307,614,-0.6586914,-0.122802734,0.7792969,987.2825,972.1832,4.1984735,0.04321289,-0.24804688,0.96972656,999.4504,997.19086,994.7939,0.0,0.0,0.0,0.0,0.0,0.0,0.0,0.0,0.0,0.0,0.0,0.0
308,616,-0.68603516,-0.17675781,0.72680664,987.23663,972.30536,4.259542,0.08569336,-0.17651367,0.9699707,999.5115,997.2825,994.7786,0.0,0.0,0.0,0.0,0.0,0.0,0.0,0.0,0.0,0.0,0.0,0.0
309,618,-0.69091797,-0.115478516,0.75390625,987.2061,972.47327,4.4274807,0.13623047,-0.20629883,0.97094727,999.542,997.2519,994.7176,0.0,0.0,0.0,0.0,0.0,0.0,0.0,0.0,0.0,0.0,0.0,0.0
310,620,-0.70214844,-0.14990234,0.7746582,987.23663,972.5649,4.5038166,0.068603516,-0.18261719,0.9790039,999.52673,997.2519,994.64124,0.0,0.0,0.0,0.0,0.0,0.0,0.0,0.0,0.0,0.0,0.0,0.0
311,622,-0.6791992,-0.14257812,0.8161621,987.32825,972.5496,4.4274807,0.083496094,-0.24023438,0.9758301,999.4962,997.2977,994.64124,0.0,0.0,0.0,0.0,0.0,0.0,0.0,0.0,0.0,0.0,0.0,0.0
312,624,-0.59887695,-0.15307617,0.73999023,987.2825,972.626,4.3511453,0.083496094,-0.28271484,0.9868164,999.603,997.35876,994.64124,0.0,0.0,0.0,0.0,0.0,0.0,0.0,0.0,0.0,0.0,0.0,0.0
313,626,-0.704834,-0.09326172,0.74487305,987.2825,972.7023,4.3816795,0.11743164,-0.20605469,1.0080566,999.6336,997.41986,994.7176,0.0,0.0,0.0,0.0,0.0,0.0,0.0,0.0,0.0,0.0,0.0,0.0
314,628,-0.6911621,-0.13574219,0.7644043,987.2977,972.6565,4.4732823,0.06591797,-0.19995117,0.9797363,999.55725,997.38934,994.7939,0.0,0.0,0.0,0.0,0.0,0.0,0.0,0.0,0.0,0.0,0.0,0.0
315,630,-0.6452637,-0.091308594,0.78125,987.35876,972.5954,4.4732823,0.07373047,-0.22875977,0.96850586,999.542,997.4046,994.7939,0.0,0.0,0.0,0.0,0.0,0.0,0.0,0.0,0.0,0.0,0.0,0.0
316,632,-0.64990234,-0.12182617,0.7553711,987.38934,972.58014,4.4580154,0.080566406,-0.18408203,0.9609375,999.542,997.4351,994.76337,0.0,0.0,0.0,0.0,0.0,0.0,0.0,0.0,0.0,0.0,0.0,0.0
317,634,-0.6467285,-0.13549805,0.79467773,987.374,972.64124,4.412214,0.048339844,-0.17260742,0.9848633,999.5725,997.46564,994.7176,0.0,0.0,0.0,0.0,0.0,0.0,0.0,0.0,0.0,0.0,0.0,0.0
318,636,-0.66967773,-0.12963867,0.7463379,987.41986,972.64124,4.412214,0.13134766,-0.20703125,0.93847656,999.4962,997.4046,994.7939,0.0,0.0,0.0,0.0,0.0,0.0,0.0,0.0,0.0,0.0,0.0,0.0
319,638,-0.6472168,-0.1352539,0.81225586,987.46564,972.5496,4.366412,0.095458984,-0.20458984,0.9567871,999.4962,997.2977,994.8397,0.0,0.0,0.0,0.0,0.0,0.0,0.0,0.0,0.0,0.0,0.0,0.0
320,640,-0.6452637,-0.123046875,0.78686523,987.4351,972.5954,4.335878,0.10424805,-0.22338867,0.9645996,999.4351,997.2519,994.8397,0.0,0.0,0.0,0.0,0.0,0.0,0.0,0.0,0.0,0.0,0.0,0.0
321,642,-0.67529297,-0.1262207,0.75097656,987.3435,972.67175,4.366412,0.11010742,-0.20996094,1.0063477,999.38934,997.26715,994.855,0.0,0.0,0.0,0.0,0.0,0.0,0.0,0.0,0.0,0.0,0.0,0.0
322,644,-0.6442871,-0.16088867,0.7524414,987.4351,972.7023,4.3206105,0.10620117,-0.22070312,0.99365234,999.41986,997.3435,994.8244,0.0,0.0,0.0,0.0,0.0,0.0,0.0,0.0,0.0,0.0,0.0,0.0
323,646,-0.6352539,-0.14331055,0.77734375,987.4504,972.6565,4.3511453,0.07763672,-0.23291016,0.9350586,999.3435,997.35876,994.8855,0.0,0.0,0.0,0.0,0.0,0.0,0.0,0.0,0.0,0.0,0.0,0.0
324,648,-0.6567383,-0.115722656,0.810791,987.4809,972.5496,4.412214,0.021484375,-0.19384766,0.9897461,999.32825,997.2825,994.916,0.0,0.0,0.0,0.0,0.0,0.0,0.0,0.0,0.0,0.0,0.0,0.0
325,650,-0.67333984,-0.17480469,0.72998047,987.603,972.53436,4.519084,0.096191406,-0.22314453,0.9589844,999.46564,997.26715,994.855,0.0,0.0,0.0,0.0,0.0,0.0,0.0,0.0,0.0,0.0,0.0,0.0
326,652,-0.66308594,-0.13354492,0.7590332,987.7099,972.47327,4.4580154,0.092285156,-0.265625,0.9538574,999.46564,997.2519,994.80914,0.0,0.0,0.0,0.0,0.0,0.0,0.0,0.0,0.0,0.0,0.0,0.0
327,654,-0.62841797,-0.123535156,0.7685547,987.78625,972.3664,4.442748,0.047607422,-0.22070312,0.98535156,999.4351,997.1603,994.8244,0.0,0.0,0.0,0.0,0.0,0.0,0.0,0.0,0.0,0.0,0.0,0.0
328,656,-0.6669922,-0.10131836,0.74121094,987.84735,972.38165,4.442748,0.07739258,-0.23291016,0.96435547,999.38934,997.1756,994.90076,0.0,0.0,0.0,0.0,0.0,0.0,0.0,0.0,0.0,0.0,0.0,0.0
329,658,-0.6491699,-0.19165039,0.7609863,987.8626,972.4275,4.5038166,0.05859375,-0.26098633,0.92822266,999.41986,997.145,994.8855,0.0,0.0,0.0,0.0,0.0,0.0,0.0,0.0,0.0,0.0,0.0,0.0
330,660,-0.6738281,-0.13793945,0.7307129,987.84735,972.6565,4.5038166,0.15795898,-0.19091797,0.9367676,999.46564,997.1603,994.87024,0.0,0.0,0.0,0.0,0.0,0.0,0.0,0.0,0.0,0.0,0.0,0.0
331,662,-0.6520996,-0.1665039,0.7553711,987.8626,972.64124,4.3969464,0.0847168,-0.25268555,0.92700195,999.4351,997.1756,994.8855,0.0,0.0,0.0,0.0,0.0,0.0,0.0,0.0,0.0,0.0,0.0,0.0
332,664,-0.6899414,-0.11401367,0.796875,987.9542,972.38165,4.3206105,0.14331055,-0.17919922,0.98999023,999.35876,997.1756,994.916,0.0,0.0,0.0,0.0,0.0,0.0,0.0,0.0,0.0,0.0,0.0,0.0
333,666,-0.6550293,-0.1875,0.7800293,987.93896,972.30536,4.2900763,0.09106445,-0.21777344,0.9572754,999.3435,997.1756,994.76337,0.0,0.0,0.0,0.0,0.0,0.0,0.0,0.0,0.0,0.0,0.0,0.0
334,668,-0.6503906,-0.15185547,0.80859375,987.84735,972.38165,4.3511453,0.052978516,-0.25952148,0.9785156,999.32825,997.2214,994.7786,0.0,0.0,0.0,0.0,0.0,0.0,0.0,0.0,0.0,0.0,0.0,0.0
335,670,-0.6801758,-0.15136719,0.7927246,987.84735,972.4885,4.412214,0.0949707,-0.21313477,0.9851074,999.46564,997.23663,994.7786,0.0,0.0,0.0,0.0,0.0,0.0,0.0,0.0,0.0,0.0,0.0,0.0
336,672,-0.67211914,-0.14160156,0.75805664,987.92365,972.5191,4.4274807,0.12573242,-0.22045898,0.96240234,999.4962,997.23663,994.855,0.0,0.0,0.0,0.0,0.0,0.0,0.0,0.0,0.0,0.0,0.0,0.0
337,674,-0.6508789,-0.16552734,0.7897949,987.92365,972.5496,4.4580154,0.10839844,-0.25585938,0.95214844,999.38934,997.2519,994.96185,0.0,0.0,0.0,0.0,0.0,0.0,0.0,0.0,0.0,0.0,0.0,0.0
338,676,-0.638916,-0.123046875,0.767334,987.8168,972.5496,4.4580154,0.052978516,-0.20043945,0.970459,999.35876,997.313,994.9924,0.0,0.0,0.0,0.0,0.0,0.0,0.0,0.0,0.0,0.0,0.0,0.0
339,678,-0.6706543,-0.12109375,0.7919922,987.7405,972.5496,4.3969464,0.0847168,-0.20019531,0.970459,999.3435,997.26715,994.9771,0.0,0.0,0.0,0.0,0.0,0.0,0.0,0.0,0.0,0.0,0.0,0.0
340,680,-0.66064453,-0.13110352,0.7583008,987.75574,972.44275,4.3511453,0.087890625,-0.22021484,0.9880371,999.38934,997.2977,994.9771,0.0,0.0,0.0,0.0,0.0,0.0,0.0,0.0,0.0,0.0,0.0,0.0
341,682,-0.65771484,-0.18017578,0.7729492,987.771,972.4275,4.3053436,0.09863281,-0.22241211,0.939209,999.4504,997.23663,994.9771,0.0,0.0,0.0,0.0,0.0,0.0,0.0,0.0,0.0,0.0,0.0,0.0
342,684,-0.6743164,-0.15429688,0.78637695,987.78625,972.5954,4.3206105,0.045410156,-0.2290039,0.9597168,999.4351,997.2214,995.0076,0.0,0.0,0.0,0.0,0.0,0.0,0.0,0.0,0.0,0.0,0.0,0.0
343,686,-0.689209,-0.15576172,0.81396484,987.8015,972.5496,4.335878,0.071777344,-0.2446289,0.98413086,999.46564,997.2061,994.96185,0.0,0.0,0.0,0.0,0.0,0.0,0.0,0.0,0.0,0.0,0.0,0.0
344,688,-0.657959,-0.119384766,0.7817383,987.9084,972.4885,4.3053436,0.10229492,-0.22363281,0.95654297,999.4962,997.1603,994.96185,0.0,0.0,0.0,0.0,0.0,0.0,0.0,0.0,0.0,0.0,0.0,0.0
345,690,-0.65844727,-0.1586914,0.76342773,987.93896,972.3664,4.3511453,0.07885742,-0.23022461,0.95947266,999.4962,997.1145,995.0229,0.0,0.0,0.0,0.0,0.0,0.0,0.0,0.0,0.0,0.0,0.0,0.0
346,692,-0.66137695,-0.16894531,0.6989746,987.78625,972.2595,4.366412,0.107910156,-0.23071289,0.97094727,999.41986,997.145,995.145,0.0,0.0,0.0,0.0,0.0,0.0,0.0,0.0,0.0,0.0,0.0,0.0
347,694,-0.6472168,-0.1430664,0.7883301,987.7099,972.38165,4.3816795,0.09887695,-0.23046875,0.9580078,999.4046,997.1145,995.084,0.0,0.0,0.0,0.0,0.0,0.0,0.0,0.0,0.0,0.0,0.0,0.0
348,696,-0.6826172,-0.12695312,0.8273926,987.7405,972.4275,4.2748094,0.123291016,-0.22998047,0.9707031,999.4504,997.09924,995.09924,0.0,0.0,0.0,0.0,0.0,0.0,0.0,0.0,0.0,0.0,0.0,0.0
349,698,-0.70214844,-0.14208984,0.77685547,987.8626,972.458,4.183206,0.06567383,-0.2487793,0.9724121,999.55725,997.09924,995.0687,0.0,0.0,0.0,0.0,0.0,0.0,0.0,0.0,0.0,0.0,0.0,0.0
350,700,-0.65649414,-0.12573242,0.7648926,987.87787,972.38165,4.1679387,0.13696289,-0.27441406,0.96875,999.6336,997.03815,995.084,0.0,0.0,0.0,0.0,0.0,0.0,0.0,0.0,0.0,0.0,0.0,0.0
351,702,-0.69384766,-0.12426758,0.7993164,987.75574,972.44275,4.10687,0.12207031,-0.23657227,0.90893555,999.6336,996.96185,994.9924,0.0,0.0,0.0,0.0,0.0,0.0,0.0,0.0,0.0,0.0,0.0,0.0
352,704,-0.6489258,-0.12011719,0.8149414,987.8015,972.38165,3.9847329,0.11035156,-0.25561523,0.9328613,999.58777,996.9313,994.9313,0.0,0.0,0.0,0.0,0.0,0.0,0.0,0.0,0.0,0.0,0.0,0.0
353,706,-0.67944336,-0.12817383,0.75927734,987.8931,972.41223,3.923664,0.08544922,-0.2319336,0.95751953,999.64886,996.9466,995.05347,0.0,0.0,0.0,0.0,0.0,0.0,0.0,0.0,0.0,0.0,0.0,0.0
354,708,-0.6750488,-0.16186523,0.7614746,987.87787,972.50385,3.9389312,0.115478516,-0.21484375,0.93725586,999.6641,996.90076,995.084,0.0,0.0,0.0,0.0,0.0,0.0,0.0,0.0,0.0,0.0,0.0,0.0
355,710,-0.6948242,-0.118652344,0.73339844,987.7405,972.58014,3.923664,0.04638672,-0.18359375,0.9777832,999.6794,996.8855,995.05347,0.0,0.0,0.0,0.0,0.0,0.0,0.0,0.0,0.0,0.0,0.0,0.0
356,712,-0.66015625,-0.16821289,0.71484375,987.78625,972.6107,4.0,0.15527344,-0.22338867,0.9555664,999.7099,996.916,994.96185,0.0,0.0,0.0,0.0,0.0,0.0,0.0,0.0,0.0,0.0,0.0,0.0
357,714,-0.66845703,-0.11767578,0.7817383,987.75574,972.50385,4.076336,0.03125,-0.23535156,0.9873047,999.69464,997.0076,994.96185,0.0,0.0,0.0,0.0,0.0,0.0,0.0,0.0,0.0,0.0,0.0,0.0
358,716,-0.6826172,-0.17236328,0.8156738,987.6794,972.50385,3.9847329,0.063964844,-0.26293945,0.94262695,999.6336,997.0229,995.03815,0.0,0.0,0.0,0.0,0.0,0.0,0.0,0.0,0.0,0.0,0.0,0.0
359,718,-0.66064453,-0.119384766,0.7546387,987.61835,972.47327,3.908397,0.00390625,-0.18823242,0.9436035,999.75574,997.05347,995.0076,0.0,0.0,0.0,0.0,0.0,0.0,0.0,0.0,0.0,0.0,0.0,0.0
360,720,-0.6948242,-0.13989258,0.7561035,987.6641,972.458,3.8778627,0.0793457,-0.23608398,0.9589844,999.771,997.145,994.9924,0.0,0.0,0.0,0.0,0.0,0.0,0.0,0.0,0.0,0.0,0.0,0.0
361,722,-0.6633301,-0.13208008,0.8078613,987.7099,972.397,3.832061,0.08300781,-0.22851562,0.99194336,999.78625,997.19086,994.9466,0.0,0.0,0.0,0.0,0.0,0.0,0.0,0.0,0.0,0.0,0.0,0.0
362,724,-0.65649414,-0.14672852,0.7541504,987.7099,972.3206,3.8473282,0.12573242,-0.19116211,0.95336914,999.9542,997.2519,994.9466,0.0,0.0,0.0,0.0,0.0,0.0,0.0,0.0,0.0,0.0,0.0,0.0
363,726,-0.6386719,-0.1418457,0.798584,987.4962,972.41223,3.8015268,0.08300781,-0.21582031,0.9902344,999.98474,997.23663,994.9924,0.0,0.0,0.0,0.0,0.0,0.0,0.0,0.0,0.0,0.0,0.0,0.0
364,728,-0.6921387,-0.14648438,0.8022461,987.4809,972.41223,3.923664,0.044677734,-0.22460938,0.97314453,1000.0916,997.26715,994.9771,0.0,0.0,0.0,0.0,0.0,0.0,0.0,0.0,0.0,0.0,0.0,0.0
365,730,-0.69506836,-0.15600586,0.8000488,987.4962,972.2595,3.9541986,0.087890625,-0.21508789,0.9951172,1000.16797,997.2519,994.916,0.0,0.0,0.0,0.0,0.0,0.0,0.0,0.0,0.0,0.0,0.0,0.0
366,732,-0.64575195,-0.15283203,0.7753906,987.4962,972.27484,3.9389312,0.13964844,-0.17822266,0.96728516,1000.21375,997.2214,994.9313,0.0,0.0,0.0,0.0,0.0,0.0,0.0,0.0,0.0,0.0,0.0,0.0
367,734,-0.6567383,-0.15625,0.72680664,987.4504,972.3664,4.0916033,0.09692383,-0.1628418,0.9807129,1000.21375,997.2061,994.9924,0.0,0.0,0.0,0.0,0.0,0.0,0.0,0.0,0.0,0.0,0.0,0.0
368,736,-0.6755371,-0.11230469,0.7404785,987.4504,972.41223,4.1374044,0.08251953,-0.21728516,0.97680664,1000.15265,997.19086,994.87024,0.0,0.0,0.0,0.0,0.0,0.0,0.0,0.0,0.0,0.0,0.0,0.0
369,738,-0.66186523,-0.16455078,0.74731445,987.542,972.47327,4.0458016,0.08666992,-0.28466797,0.96118164,1000.15265,997.26715,994.7939,0.0,0.0,0.0,0.0,0.0,0.0,0.0,0.0,0.0,0.0,0.0,0.0
370,740,-0.6687012,-0.111083984,0.78930664,987.5115,972.47327,4.0,0.07910156,-0.22802734,0.95166016,1000.21375,997.2519,994.8855,0.0,0.0,0.0,0.0,0.0,0.0,0.0,0.0,0.0,0.0,0.0,0.0
371,742,-0.69506836,-0.14575195,0.7915039,987.55725,972.4275,3.9541986,0.104003906,-0.2319336,0.97314453,1000.1985,997.2977,994.9313,0.0,0.0,0.0,0.0,0.0,0.0,0.0,0.0,0.0,0.0,0.0,0.0
372,744,-0.6398926,-0.1496582,0.71118164,987.4962,972.47327,3.8625953,0.041503906,-0.20898438,0.95336914,1000.1832,997.374,994.96185,0.0,0.0,0.0,0.0,0.0,0.0,0.0,0.0,0.0,0.0,0.0,0.0
373,746,-0.6669922,-0.1586914,0.7871094,987.41986,972.3664,3.908397,0.061035156,-0.22729492,1.0180664,1000.12213,997.4351,994.9771,0.0,0.0,0.0,0.0,0.0,0.0,0.0,0.0,0.0,0.0,0.0,0.0
374,748,-0.66137695,-0.11987305,0.75878906,987.542,972.229,3.9694657,0.048583984,-0.18164062,0.9885254,1000.0916,997.41986,995.1145,0.0,0.0,0.0,0.0,0.0,0.0,0.0,0.0,0.0,0.0,0.0,0.0
375,750,-0.6608887,-0.18920898,0.7805176,987.55725,972.3664,4.0152674,0.072509766,-0.20581055,0.98706055,1000.1069,997.4962,995.03815,0.0,0.0,0.0,0.0,0.0,0.0,0.0,0.0,0.0,0.0,0.0,0.0
376,752,-0.6479492,-0.10522461,0.7937012,987.38934,972.4885,4.0305343,0.10449219,-0.23510742,0.9663086,1000.1374,997.5725,994.9466,0.0,0.0,0.0,0.0,0.0,0.0,0.0,0.0,0.0,0.0,0.0,0.0
377,754,-0.67626953,-0.10229492,0.7402344,987.374,972.4275,3.9694657,0.14038086,-0.23266602,0.9782715,1000.1069,997.5115,995.0076,0.0,0.0,0.0,0.0,0.0,0.0,0.0,0.0,0.0,0.0,0.0,0.0
378,756,-0.6574707,-0.12548828,0.8100586,987.35876,972.3206,3.8778627,0.09033203,-0.2084961,0.9550781,1000.07635,997.542,995.0229,0.0,0.0,0.0,0.0,0.0,0.0,0.0,0.0,0.0,0.0,0.0,0.0
379,758,-0.6555176,-0.1508789,0.7529297,987.32825,972.397,3.832061,0.08984375,-0.23388672,0.9399414,1000.0458,997.4962,995.145,0.0,0.0,0.0,0.0,0.0,0.0,0.0,0.0,0.0,0.0,0.0,0.0
380,760,-0.66625977,-0.14648438,0.8027344,987.2061,972.38165,3.7709923,0.091552734,-0.26879883,0.9484863,1000.0611,997.4504,995.145,0.0,0.0,0.0,0.0,0.0,0.0,0.0,0.0,0.0,0.0,0.0,0.0
381,762,-0.671875,-0.12915039,0.71850586,987.12976,972.2595,3.7709923,0.106933594,-0.22558594,0.95410156,1000.16797,997.35876,995.0687,0.0,0.0,0.0,0.0,0.0,0.0,0.0,0.0,0.0,0.0,0.0,0.0
382,764,-0.6760254,-0.14746094,0.76831055,987.1756,972.1069,3.8625953,0.07470703,-0.29663086,0.9892578,1000.27484,997.3435,995.0076,0.0,0.0,0.0,0.0,0.0,0.0,0.0,0.0,0.0,0.0,0.0,0.0
383,766,-0.65966797,-0.14477539,0.77490234,987.12976,972.07635,3.908397,0.12231445,-0.20581055,0.95581055,1000.3359,997.35876,994.916,0.0,0.0,0.0,0.0,0.0,0.0,0.0,0.0,0.0,0.0,0.0,0.0
384,768,-0.64941406,-0.10864258,0.7998047,987.19086,972.1985,3.923664,0.05810547,-0.2578125,0.99853516,1000.24426,997.2825,994.9466,0.0,0.0,0.0,0.0,0.0,0.0,0.0,0.0,0.0,0.0,0.0,0.0
385,770,-0.7260742,-0.111816406,0.75561523,987.313,972.07635,3.9847329,0.10449219,-0.22998047,0.98657227,1000.229,997.2977,995.0076,0.0,0.0,0.0,0.0,0.0,0.0,0.0,0.0,0.0,0.0,0.0,0.0
386,772,-0.6911621,-0.15942383,0.7651367,987.2977,971.9542,4.0,0.13134766,-0.21533203,0.97265625,1000.1985,997.313,994.9771,0.0,0.0,0.0,0.0,0.0,0.0,0.0,0.0,0.0,0.0,0.0,0.0
387,774,-0.64868164,-0.1105957,0.74243164,987.19086,972.01526,4.0,0.100097656,-0.21533203,0.9567871,1000.15265,997.32825,995.0076,0.0,0.0,0.0,0.0,0.0,0.0,0.0,0.0,0.0,0.0,0.0,0.0
388,776,-0.6779785,-0.12475586,0.78393555,987.19086,972.15265,4.0,0.08105469,-0.17773438,0.9567871,1000.1069,997.32825,994.96185,0.0,0.0,0.0,0.0,0.0,0.0,0.0,0.0,0.0,0.0,0.0,0.0
389,778,-0.6875,-0.14990234,0.77612305,987.12976,972.16797,4.0,0.076660156,-0.24926758,0.954834,1000.16797,997.32825,994.8855,0.0,0.0,0.0,0.0,0.0,0.0,0.0,0.0,0.0,0.0,0.0,0.0
390,780,-0.6669922,-0.13916016,0.8083496,987.2214,972.15265,3.8931298,0.076660156,-0.25024414,0.95654297,1000.21375,997.3435,994.87024,0.0,0.0,0.0,0.0,0.0,0.0,0.0,0.0,0.0,0.0,0.0,0.0
391,782,-0.65771484,-0.14135742,0.7832031,987.2977,972.1069,3.8473282,0.11010742,-0.2770996,0.9313965,1000.2901,997.26715,995.0229,0.0,0.0,0.0,0.0,0.0,0.0,0.0,0.0,0.0,0.0,0.0,0.0
392,784,-0.68969727,-0.13793945,0.78100586,987.2977,972.07635,3.832061,0.05419922,-0.23046875,0.9848633,1000.21375,997.2061,995.09924,0.0,0.0,0.0,0.0,0.0,0.0,0.0,0.0,0.0,0.0,0.0,0.0
393,786,-0.6843262,-0.1105957,0.7993164,987.2519,972.1069,3.8931298,0.11401367,-0.2084961,0.9614258,1000.16797,997.0687,995.0687,0.0,0.0,0.0,0.0,0.0,0.0,0.0,0.0,0.0,0.0,0.0,0.0
394,788,-0.68066406,-0.13916016,0.79907227,987.26715,972.15265,3.9541986,0.091796875,-0.21728516,0.9238281,1000.12213,997.0076,995.0687,0.0,0.0,0.0,0.0,0.0,0.0,0.0,0.0,0.0,0.0,0.0,0.0
395,790,-0.6730957,-0.12231445,0.7487793,987.2519,972.1374,3.908397,0.10229492,-0.23242188,0.9667969,1000.16797,997.09924,995.1756,0.0,0.0,0.0,0.0,0.0,0.0,0.0,0.0,0.0,0.0,0.0,0.0
396,792,-0.64941406,-0.12988281,0.7727051,987.19086,972.229,3.8931298,0.13647461,-0.21313477,0.97680664,1000.0916,997.09924,995.2061,0.0,0.0,0.0,0.0,0.0,0.0,0.0,0.0,0.0,0.0,0.0,0.0
397,794,-0.6594238,-0.11254883,0.73950195,987.09924,972.3359,3.8931298,0.08911133,-0.20263672,1.0078125,999.98474,997.03815,995.1603,0.0,0.0,0.0,0.0,0.0,0.0,0.0,0.0,0.0,0.0,0.0,0.0
398,796,-0.6906738,-0.1328125,0.7609863,987.12976,972.2595,3.9389312,0.12792969,-0.23364258,0.96069336,999.93896,996.9924,995.1603,0.0,0.0,0.0,0.0,0.0,0.0,0.0,0.0,0.0,0.0,0.0,0.0
399,798,-0.6520996,-0.14526367,0.81689453,987.2214,972.24426,4.0458016,0.10888672,-0.1977539,0.9733887,1000.01526,997.0229,995.19086,0.0,0.0,0.0,0.0,0.0,0.0,0.0,0.0,0.0,0.0,0.0,0.0
400,800,-0.6977539,-0.1538086,0.7609863,987.2519,972.3206,4.1221375,0.1159668,-0.21826172,0.9951172,1000.07635,997.0076,995.2825,0.0,0.0,0.0,0.0,0.0,0.0,0.0,0.0,0.0,0.0,0.0,0.0
401,802,-0.6738281,-0.14624023,0.736084,987.2214,972.15265,4.2442746,0.103759766,-0.23535156,0.97558594,1000.07635,996.96185,995.23663,0.0,0.0,0.0,0.0,0.0,0.0,0.0,0.0,0.0,0.0,0.0,0.0
402,804,-0.66748047,-0.15136719,0.7648926,987.2977,972.12213,4.259542,0.095214844,-0.2211914,0.9633789,1000.0611,996.916,995.09924,0.0,0.0,0.0,0.0,0.0,0.0,0.0,0.0,0.0,0.0,0.0,0.0
403,806,-0.6591797,-0.140625,0.7805176,987.374,972.1374,4.3206105,0.11230469,-0.2331543,0.97558594,1000.0305,996.9771,995.1145,0.0,0.0,0.0,0.0,0.0,0.0,0.0,0.0,0.0,0.0,0.0,0.0
404,808,-0.66625977,-0.111816406,0.814209,987.4046,972.1069,4.3511453,0.09350586,-0.17993164,0.91748047,1000.12213,997.09924,995.1145,0.0,0.0,0.0,0.0,0.0,0.0,0.0,0.0,0.0,0.0,0.0,0.0
405,810,-0.70751953,-0.17358398,0.8066406,987.374,972.07635,4.3053436,0.13183594,-0.18530273,0.93408203,1000.0916,997.12976,995.05347,0.0,0.0,0.0,0.0,0.0,0.0,0.0,0.0,0.0,0.0,0.0,0.0
406,812,-0.71728516,-0.17504883,0.8256836,987.2977,971.98474,4.259542,0.09326172,-0.23803711,0.9812012,1000.01526,997.09924,995.145,0.0,0.0,0.0,0.0,0.0,0.0,0.0,0.0,0.0,0.0,0.0,0.0
407,814,-0.66503906,-0.15722656,0.7741699,987.3435,971.8015,4.10687,0.12011719,-0.23266602,0.9802246,999.93896,997.1145,995.2061,0.0,0.0,0.0,0.0,0.0,0.0,0.0,0.0,0.0,0.0,0.0,0.0
408,816,-0.66552734,-0.13085938,0.7578125,987.32825,971.8626,4.1679387,0.114746094,-0.21289062,0.9667969,999.84735,997.2061,995.1603,0.0,0.0,0.0,0.0,0.0,0.0,0.0,0.0,0.0,0.0,0.0,0.0
409,818,-0.6699219,-0.15673828,0.77978516,987.2825,971.92365,4.259542,0.080078125,-0.24316406,0.9851074,999.8931,997.2214,995.1756,0.0,0.0,0.0,0.0,0.0,0.0,0.0,0.0,0.0,0.0,0.0,0.0
410,820,-0.67407227,-0.15795898,0.795166,987.2519,971.9542,4.2748094,0.053955078,-0.25708008,0.9458008,999.92365,997.19086,995.09924,0.0,0.0,0.0,0.0,0.0,0.0,0.0,0.0,0.0,0.0,0.0,0.0
411,822,-0.6672363,-0.10620117,0.83691406,987.35876,971.78625,4.259542,0.05102539,-0.25073242,0.99121094,999.9084,997.12976,994.9924,0.0,0.0,0.0,0.0,0.0,0.0,0.0,0.0,0.0,0.0,0.0,0.0
412,824,-0.6538086,-0.1538086,0.7607422,987.374,971.771,4.3206105,0.015625,-0.23022461,0.9836426,999.8626,997.19086,995.0229,0.0,0.0,0.0,0.0,0.0,0.0,0.0,0.0,0.0,0.0,0.0,0.0
413,826,-0.6491699,-0.18066406,0.7314453,987.313,971.8321,4.3206105,0.08227539,-0.23168945,0.98828125,999.78625,997.2214,995.1145,0.0,0.0,0.0,0.0,0.0,0.0,0.0,0.0,0.0,0.0,0.0,0.0
414,828,-0.7072754,-0.16723633,0.7595215,987.2825,971.8931,4.2748094,0.05883789,-0.22827148,0.9758301,999.7252,997.1756,995.1603,0.0,0.0,0.0,0.0,0.0,0.0,0.0,0.0,0.0,0.0,0.0,0.0
415,830,-0.65527344,-0.13916016,0.7663574,987.32825,971.9084,4.3053436,0.049804688,-0.21582031,0.9694824,999.7405,997.1145,995.084,0.0,0.0,0.0,0.0,0.0,0.0,0.0,0.0,0.0,0.0,0.0,0.0
416,832,-0.6711426,-0.09716797,0.6960449,987.35876,971.8931,4.3816795,0.09057617,-0.22973633,0.96728516,999.58777,997.1756,995.0229,0.0,0.0,0.0,0.0,0.0,0.0,0.0,0.0,0.0,0.0,0.0,0.0
417,834,-0.6801758,-0.10961914,0.7102051,987.32825,971.93896,4.366412,0.13916016,-0.203125,0.9692383,999.6336,997.19086,995.03815,0.0,0.0,0.0,0.0,0.0,0.0,0.0,0.0,0.0,0.0,0.0,0.0
418,836,-0.66552734,-0.15454102,0.7348633,987.32825,972.1069,4.2900763,0.06958008,-0.20141602,0.9362793,999.603,997.12976,995.0076,0.0,0.0,0.0,0.0,0.0,0.0,0.0,0.0,0.0,0.0,0.0,0.0
419,838,-0.6791992,-0.14746094,0.7956543,987.2825,972.12213,4.3816795,0.12524414,-0.23730469,0.9794922,999.55725,997.1603,994.9771,0.0,0.0,0.0,0.0,0.0,0.0,0.0,0.0,0.0,0.0,0.0,0.0
420,840,-0.6621094,-0.14916992,0.7607422,987.313,972.12213,4.4274807,0.076660156,-0.19311523,0.9946289,999.46564,997.23663,994.916,0.0,0.0,0.0,0.0,0.0,0.0,0.0,0.0,0.0,0.0,0.0,0.0
421,842,-0.6520996,-0.15161133,0.81152344,987.2977,972.21375,4.3511453,0.08203125,-0.1977539,0.9848633,999.374,997.1756,994.96185,0.0,0.0,0.0,0.0,0.0,0.0,0.0,0.0,0.0,0.0,0.0,0.0
422,844,-0.689209,-0.13012695,0.7937012,987.2519,972.4275,4.3816795,0.0690918,-0.21362305,0.97753906,999.374,997.12976,994.9466,0.0,0.0,0.0,0.0,0.0,0.0,0.0,0.0,0.0,0.0,0.0,0.0
423,846,-0.640625,-0.1105957,0.77856445,987.374,972.5649,4.4580154,0.123535156,-0.22631836,0.9914551,999.41986,997.1145,995.05347,0.0,0.0,0.0,0.0,0.0,0.0,0.0,0.0,0.0,0.0,0.0,0.0
424,848,-0.63183594,-0.08984375,0.81640625,987.35876,972.50385,4.442748,0.11450195,-0.22192383,0.97143555,999.2825,997.084,995.1145,0.0,0.0,0.0,0.0,0.0,0.0,0.0,0.0,0.0,0.0,0.0,0.0
425,850,-0.65478516,-0.13793945,0.7817383,987.2825,972.50385,4.335878,0.106933594,-0.2475586,0.9875488,999.32825,997.145,995.03815,0.0,0.0,0.0,0.0,0.0,0.0,0.0,0.0,0.0,0.0,0.0,0.0
426,852,-0.6220703,-0.14770508,0.74560547,987.23663,972.4885,4.2900763,0.095214844,-0.22875977,0.9760742,999.2519,997.09924,995.03815,0.0,0.0,0.0,0.0,0.0,0.0,0.0,0.0,0.0,0.0,0.0,0.0
427,854,-0.6862793,-0.14233398,0.7783203,987.2519,972.3664,4.366412,0.083496094,-0.20141602,0.98779297,999.2825,997.12976,995.0229,0.0,0.0,0.0,0.0,0.0,0.0,0.0,0.0,0.0,0.0,0.0,0.0
428,856,-0.703125,-0.11303711,0.79052734,987.12976,972.3206,4.366412,0.10522461,-0.20166016,0.9394531,999.26715,997.084,995.05347,0.0,0.0,0.0,0.0,0.0,0.0,0.0,0.0,0.0,0.0,0.0,0.0
429,858,-0.67822266,-0.14672852,0.7663574,987.1756,972.38165,4.3053436,0.092041016,-0.20898438,0.97753906,999.2519,996.96185,995.09924,0.0,0.0,0.0,0.0,0.0,0.0,0.0,0.0,0.0,0.0,0.0,0.0
430,860,-0.7062988,-0.13500977,0.7878418,987.12976,972.50385,4.3053436,0.06225586,-0.25952148,0.982666,999.32825,997.0229,995.1756,0.0,0.0,0.0,0.0,0.0,0.0,0.0,0.0,0.0,0.0,0.0,0.0
431,862,-0.6816406,-0.17871094,0.7697754,987.084,972.6107,4.3053436,0.046875,-0.19433594,0.9797363,999.38934,997.09924,995.19086,0.0,0.0,0.0,0.0,0.0,0.0,0.0,0.0,0.0,0.0,0.0,0.0
432,864,-0.66552734,-0.123046875,0.78808594,987.084,972.4885,4.3053436,0.11767578,-0.22558594,1.0068359,999.35876,997.2519,995.1603,0.0,0.0,0.0,0.0,0.0,0.0,0.0,0.0,0.0,0.0,0.0,0.0
433,866,-0.6789551,-0.13964844,0.7998047,987.084,972.35114,4.3816795,0.10888672,-0.20385742,0.9968262,999.35876,997.3435,995.05347,0.0,0.0,0.0,0.0,0.0,0.0,0.0,0.0,0.0,0.0,0.0,0.0
434,868,-0.7194824,-0.12841797,0.751709,987.0076,972.3359,4.442748,0.08227539,-0.22216797,0.9589844,999.2977,997.3435,995.084,0.0,0.0,0.0,0.0,0.0,0.0,0.0,0.0,0.0,0.0,0.0,0.0
435,870,-0.68969727,-0.18017578,0.79956055,987.0076,972.38165,4.519084,0.09643555,-0.25146484,0.9746094,999.2519,997.3435,995.03815,0.0,0.0,0.0,0.0,0.0,0.0,0.0,0.0,0.0,0.0,0.0,0.0
436,872,-0.67163086,-0.11791992,0.7446289,987.2061,972.3206,4.4580154,0.14746094,-0.20947266,0.9626465,999.23663,997.3435,994.9466,0.0,0.0,0.0,0.0,0.0,0.0,0.0,0.0,0.0,0.0,0.0,0.0
437,874,-0.6713867,-0.1262207,0.81225586,987.1756,972.229,4.2900763,0.107421875,-0.15454102,0.9904785,999.2825,997.4046,994.8397,0.0,0.0,0.0,0.0,0.0,0.0,0.0,0.0,0.0,0.0,0.0,0.0
438,876,-0.6640625,-0.15258789,0.7512207,987.05347,972.21375,4.2290077,0.10131836,-0.20239258,0.9746094,999.2061,997.41986,994.73285,0.0,0.0,0.0,0.0,0.0,0.0,0.0,0.0,0.0,0.0,0.0,0.0
439,878,-0.65966797,-0.11010742,0.7492676,987.0076,972.01526,4.183206,0.104003906,-0.2043457,0.9616699,999.2214,997.35876,994.67175,0.0,0.0,0.0,0.0,0.0,0.0,0.0,0.0,0.0,0.0,0.0,0.0
440,880,-0.7026367,-0.18457031,0.7783203,986.96185,972.07635,4.1374044,0.119140625,-0.21582031,0.98950195,999.1603,997.3435,994.58014,0.0,0.0,0.0,0.0,0.0,0.0,0.0,0.0,0.0,0.0,0.0,0.0
441,882,-0.69311523,-0.1472168,0.7861328,986.9924,972.229,4.152672,0.14746094,-0.25634766,0.96875,999.1756,997.35876,994.7176,0.0,0.0,0.0,0.0,0.0,0.0,0.0,0.0,0.0,0.0,0.0,0.0
442,884,-0.65893555,-0.14233398,0.795166,987.0076,972.30536,4.2442746,0.11621094,-0.17944336,0.9406738,999.2061,997.38934,994.6565,0.0,0.0,0.0,0.0,0.0,0.0,0.0,0.0,0.0,0.0,0.0,0.0
443,886,-0.6542969,-0.119140625,0.7780762,987.0687,972.3359,4.183206,0.052734375,-0.21972656,0.9470215,999.2214,997.374,994.6565,0.0,0.0,0.0,0.0,0.0,0.0,0.0,0.0,0.0,0.0,0.0,0.0
444,888,-0.6508789,-0.13916016,0.7434082,987.05347,972.3359,4.183206,0.140625,-0.24853516,0.93188477,999.145,997.3435,994.7023,0.0,0.0,0.0,0.0,0.0,0.0,0.0,0.0,0.0,0.0,0.0,0.0
445,890,-0.6591797,-0.1328125,0.75512695,987.1145,972.3206,4.1374044,0.044433594,-0.18286133,1.0222168,999.145,997.2977,994.76337,0.0,0.0,0.0,0.0,0.0,0.0,0.0,0.0,0.0,0.0,0.0,0.0
446,892,-0.67993164,-0.12060547,0.7961426,987.084,972.3359,4.1221375,0.118896484,-0.23266602,0.954834,999.2061,997.41986,994.7481,0.0,0.0,0.0,0.0,0.0,0.0,0.0,0.0,0.0,0.0,0.0,0.0
447,894,-0.6489258,-0.13696289,0.7788086,986.9466,972.50385,4.2137403,0.1184082,-0.2368164,0.9301758,999.2214,997.5725,994.7786,0.0,0.0,0.0,0.0,0.0,0.0,0.0,0.0,0.0,0.0,0.0,0.0
448,896,-0.66503906,-0.12011719,0.81640625,987.03815,972.458,4.2137403,0.07470703,-0.19628906,0.94628906,999.2214,997.5725,994.8244,0.0,0.0,0.0,0.0,0.0,0.0,0.0,0.0,0.0,0.0,0.0,0.0
449,898,-0.64501953,-0.16772461,0.7595215,987.084,972.4275,4.1679387,0.072021484,-0.22070312,0.9602051,999.12976,997.542,994.855,0.0,0.0,0.0,0.0,0.0,0.0,0.0,0.0,0.0,0.0,0.0,0.0
450,900,-0.65722656,-0.1328125,0.7258301,987.05347,972.47327,4.1374044,0.045166016,-0.21533203,0.9682617,999.2214,997.52673,994.87024,0.0,0.0,0.0,0.0,0.0,0.0,0.0,0.0,0.0,0.0,0.0,0.0
451,902,-0.6916504,-0.13745117,0.74072266,987.03815,972.5191,4.183206,0.03564453,-0.22192383,0.9519043,999.2214,997.52673,994.9466,0.0,0.0,0.0,0.0,0.0,0.0,0.0,0.0,0.0,0.0,0.0,0.0
452,904,-0.69506836,-0.14794922,0.78149414,987.2061,972.458,4.1984735,0.09448242,-0.25073242,0.9404297,999.23663,997.4351,994.96185,0.0,0.0,0.0,0.0,0.0,0.0,0.0,0.0,0.0,0.0,0.0,0.0
453,906,-0.6550293,-0.114746094,0.7890625,987.2061,972.41223,4.1221375,0.08203125,-0.19311523,0.9863281,999.2825,997.313,994.96185,0.0,0.0,0.0,0.0,0.0,0.0,0.0,0.0,0.0,0.0,0.0,0.0
454,908,-0.6359863,-0.17895508,0.7302246,987.145,972.44275,4.1221375,0.12426758,-0.18041992,1.0349121,999.32825,997.2519,995.0229,0.0,0.0,0.0,0.0,0.0,0.0,0.0,0.0,0.0,0.0,0.0,0.0
455,910,-0.6682129,-0.10180664,0.7529297,987.084,972.44275,4.10687,0.13256836,-0.265625,0.98291016,999.374,997.26715,995.084,0.0,0.0,0.0,0.0,0.0,0.0,0.0,0.0,0.0,0.0,0.0,0.0
456,912,-0.6635742,-0.11328125,0.8051758,987.12976,972.35114,4.0916033,0.11010742,-0.23852539,0.95043945,999.38934,997.3435,995.12976,0.0,0.0,0.0,0.0,0.0,0.0,0.0,0.0,0.0,0.0,0.0,0.0
457,914,-0.65625,-0.13061523,0.8222656,987.2061,972.4275,4.2290077,0.12402344,-0.23266602,1.003418,999.4046,997.35876,995.1756,0.0,0.0,0.0,0.0,0.0,0.0,0.0,0.0,0.0,0.0,0.0,0.0
458,916,-0.62109375,-0.13964844,0.7680664,987.2519,972.44275,4.1221375,0.111572266,-0.2607422,0.9785156,999.35876,997.41986,995.32825,0.0,0.0,0.0,0.0,0.0,0.0,0.0,0.0,0.0,0.0,0.0,0.0
459,918,-0.66748047,-0.13720703,0.73657227,987.19086,972.35114,4.076336,0.068847656,-0.20800781,0.98217773,999.4046,997.4046,995.313,0.0,0.0,0.0,0.0,0.0,0.0,0.0,0.0,0.0,0.0,0.0,0.0
460,920,-0.7067871,-0.14013672,0.7741699,987.1756,972.3359,4.076336,0.09106445,-0.22021484,0.9719238,999.52673,997.41986,995.23663,0.0,0.0,0.0,0.0,0.0,0.0,0.0,0.0,0.0,0.0,0.0,0.0
461,922,-0.67578125,-0.15356445,0.78686523,987.26715,972.24426,4.0305343,0.12402344,-0.27148438,0.9379883,999.542,997.374,995.2977,0.0,0.0,0.0,0.0,0.0,0.0,0.0,0.0,0.0,0.0,0.0,0.0
462,924,-0.6669922,-0.09741211,0.7766113,987.2519,972.1374,3.9541986,0.14038086,-0.21362305,0.9758301,999.4809,997.35876,995.3435,0.0,0.0,0.0,0.0,0.0,0.0,0.0,0.0,0.0,0.0,0.0,0.0
463,926,-0.7089844,-0.14941406,0.7717285,987.145,972.15265,4.0305343,0.083496094,-0.1940918,0.9868164,999.4351,997.2825,995.41986,0.0,0.0,0.0,0.0,0.0,0.0,0.0,0.0,0.0,0.0,0.0,0.0
464,928,-0.6953125,-0.15283203,0.7961426,987.084,972.12213,4.0305343,0.107421875,-0.18334961,0.9694824,999.4351,997.23663,995.35876,0.0,0.0,0.0,0.0,0.0,0.0,0.0,0.0,0.0,0.0,0.0,0.0
465,930,-0.6633301,-0.16772461,0.7614746,987.26715,972.0458,4.0458016,0.12792969,-0.22607422,0.935791,999.5115,997.2061,995.2519,0.0,0.0,0.0,0.0,0.0,0.0,0.0,0.0,0.0,0.0,0.0,0.0
466,932,-0.64697266,-0.14697266,0.78686523,987.35876,971.98474,4.0,0.15161133,-0.28466797,0.98168945,999.55725,997.1756,995.23663,0.0,0.0,0.0,0.0,0.0,0.0,0.0,0.0,0.0,0.0,0.0,0.0
467,934,-0.6591797,-0.13110352,0.74609375,987.2825,972.0611,3.923664,0.12792969,-0.23364258,0.9460449,999.4962,997.19086,995.26715,0.0,0.0,0.0,0.0,0.0,0.0,0.0,0.0,0.0,0.0,0.0,0.0
468,936,-0.6748047,-0.12719727,0.7470703,987.26715,971.98474,3.9541986,0.07397461,-0.17114258,0.95874023,999.4504,997.1603,995.2825,0.0,0.0,0.0,0.0,0.0,0.0,0.0,0.0,0.0,0.0,0.0,0.0
469,938,-0.6308594,-0.13208008,0.7380371,987.2825,971.8626,4.0152674,0.09765625,-0.24609375,0.96240234,999.5115,997.1756,995.32825,0.0,0.0,0.0,0.0,0.0,0.0,0.0,0.0,0.0,0.0,0.0,0.0
470,940,-0.6496582,-0.16674805,0.8261719,987.2519,971.8626,4.0610685,0.11230469,-0.22851562,0.9526367,999.5115,997.2061,995.2977,0.0,0.0,0.0,0.0,0.0,0.0,0.0,0.0,0.0,0.0,0.0,0.0
471,942,-0.6616211,-0.11352539,0.7878418,987.2214,971.9695,4.0305343,0.10449219,-0.21899414,0.9440918,999.4809,997.2519,995.32825,0.0,0.0,0.0,0.0,0.0,0.0,0.0,0.0,0.0,0.0,0.0,0.0
472,944,-0.6491699,-0.1730957,0.76586914,987.084,972.0305,3.9694657,0.08935547,-0.21020508,0.93188477,999.4809,997.2825,995.2519,0.0,0.0,0.0,0.0,0.0,0.0,0.0,0.0,0.0,0.0,0.0,0.0
473,946,-0.64941406,-0.13378906,0.8005371,987.12976,972.0305,3.8473282,0.060546875,-0.24633789,0.96655273,999.4809,997.2825,995.2519,0.0,0.0,0.0,0.0,0.0,0.0,0.0,0.0,0.0,0.0,0.0,0.0
474,948,-0.6953125,-0.18164062,0.7841797,987.2214,971.9695,3.8625953,0.02319336,-0.18041992,0.9797363,999.4351,997.23663,995.2825,0.0,0.0,0.0,0.0,0.0,0.0,0.0,0.0,0.0,0.0,0.0,0.0
475,950,-0.6538086,-0.14208984,0.8244629,987.1603,971.98474,3.8778627,0.06762695,-0.24145508,0.9477539,999.55725,997.19086,995.313,0.0,0.0,0.0,0.0,0.0,0.0,0.0,0.0,0.0,0.0,0.0,0.0
476,952,-0.65893555,-0.111083984,0.7595215,987.05347,972.0,3.8473282,0.1159668,-0.18945312,0.9729004,999.52673,997.23663,995.313,0.0,0.0,0.0,0.0,0.0,0.0,0.0,0.0,0.0,0.0,0.0,0.0
477,954,-0.67456055,-0.12109375,0.7219238,987.0229,971.9542,3.9389312,0.083496094,-0.2043457,0.99487305,999.52673,997.23663,995.35876,0.0,0.0,0.0,0.0,0.0,0.0,0.0,0.0,0.0,0.0,0.0,0.0
478,956,-0.6948242,-0.1538086,0.795166,987.0687,971.93896,4.0458016,0.1015625,-0.21508789,0.99731445,999.52673,997.2977,995.38934,0.0,0.0,0.0,0.0,0.0,0.0,0.0,0.0,0.0,0.0,0.0,0.0
479,958,-0.6789551,-0.11767578,0.78686523,987.0076,971.92365,4.0610685,0.14453125,-0.19213867,0.9680176,999.61835,997.41986,995.374,0.0,0.0,0.0,0.0,0.0,0.0,0.0,0.0,0.0,0.0,0.0,0.0
480,960,-0.6633301,-0.13964844,0.7919922,987.0687,971.9695,4.183206,0.119384766,-0.27392578,0.9694824,999.6641,997.4351,995.35876,0.0,0.0,0.0,0.0,0.0,0.0,0.0,0.0,0.0,0.0,0.0,0.0
481,962,-0.65893555,-0.13745117,0.7714844,987.1145,971.98474,4.2442746,0.048339844,-0.20385742,0.9836426,999.771,997.41986,995.2977,0.0,0.0,0.0,0.0,0.0,0.0,0.0,0.0,0.0,0.0,0.0,0.0
482,964,-0.6789551,-0.119384766,0.7824707,987.1756,971.9695,4.3053436,0.078125,-0.19873047,0.9785156,999.75574,997.35876,995.23663,0.0,0.0,0.0,0.0,0.0,0.0,0.0,0.0,0.0,0.0,0.0,0.0
483,966,-0.6682129,-0.15576172,0.7854004,987.23663,972.01526,4.3206105,0.095703125,-0.23876953,0.9526367,999.7099,997.374,995.084,0.0,0.0,0.0,0.0,0.0,0.0,0.0,0.0,0.0,0.0,0.0,0.0
484,968,-0.66748047,-0.13867188,0.8161621,987.084,972.0458,4.2137403,0.1015625,-0.21655273,1.0041504,999.7099,997.38934,995.0687,0.0,0.0,0.0,0.0,0.0,0.0,0.0,0.0,0.0,0.0,0.0,0.0
485,970,-0.65356445,-0.11987305,0.79125977,987.0687,972.0916,4.183206,0.119628906,-0.2175293,0.99975586,999.7099,997.38934,995.0687,0.0,0.0,0.0,0.0,0.0,0.0,0.0,0.0,0.0,0.0,0.0,0.0
486,972,-0.66796875,-0.13183594,0.7751465,987.1603,972.0611,4.0610685,0.07910156,-0.21142578,0.9855957,999.7099,997.41986,994.9466,0.0,0.0,0.0,0.0,0.0,0.0,0.0,0.0,0.0,0.0,0.0,0.0
487,974,-0.64038086,-0.10888672,0.7661133,987.26715,972.07635,4.0,0.12866211,-0.21533203,0.9472656,999.6641,997.4504,994.9466,0.0,0.0,0.0,0.0,0.0,0.0,0.0,0.0,0.0,0.0,0.0,0.0
488,976,-0.65063477,-0.14916992,0.78466797,987.23663,972.12213,3.9694657,0.13110352,-0.21166992,1.0031738,999.6641,997.41986,994.9924,0.0,0.0,0.0,0.0,0.0,0.0,0.0,0.0,0.0,0.0,0.0,0.0
489,978,-0.66430664,-0.13964844,0.72753906,987.12976,972.15265,3.9694657,0.114990234,-0.22192383,0.96777344,999.64886,997.46564,994.9771,0.0,0.0,0.0,0.0,0.0,0.0,0.0,0.0,0.0,0.0,0.0,0.0
490,980,-0.66625977,-0.11303711,0.7883301,987.1603,972.15265,3.9694657,0.13452148,-0.17626953,0.9572754,999.7252,997.4962,994.8397,0.0,0.0,0.0,0.0,0.0,0.0,0.0,0.0,0.0,0.0,0.0,0.0
491,982,-0.64282227,-0.12768555,0.78930664,987.23663,972.1069,4.0610685,0.07763672,-0.21899414,0.99072266,999.87787,997.55725,994.76337,0.0,0.0,0.0,0.0,0.0,0.0,0.0,0.0,0.0,0.0,0.0,0.0
492,984,-0.64941406,-0.13745117,0.80810547,987.1603,972.1985,4.0916033,0.10620117,-0.23950195,0.9555664,999.9084,997.5115,994.8244,0.0,0.0,0.0,0.0,0.0,0.0,0.0,0.0,0.0,0.0,0.0,0.0
493,986,-0.64868164,-0.118896484,0.7937012,987.2825,972.229,4.0916033,0.1003418,-0.25,1.0046387,1000.0305,997.46564,994.7176,0.0,0.0,0.0,0.0,0.0,0.0,0.0,0.0,0.0,0.0,0.0,0.0
494,988,-0.6760254,-0.11450195,0.7783203,987.41986,972.27484,4.2137403,0.114990234,-0.24047852,0.9641113,999.93896,997.55725,994.687,0.0,0.0,0.0,0.0,0.0,0.0,0.0,0.0,0.0,0.0,0.0,0.0
495,990,-0.6208496,-0.119140625,0.75561523,987.46564,972.27484,4.1374044,0.07055664,-0.19580078,0.98168945,999.84735,997.61835,994.7481,0.0,0.0,0.0,0.0,0.0,0.0,0.0,0.0,0.0,0.0,0.0,0.0
496,992,-0.6257324,-0.13671875,0.79345703,987.4809,972.41223,4.10687,0.08618164,-0.24145508,0.99560547,999.8321,997.5115,994.7023,0.0,0.0,0.0,0.0,0.0,0.0,0.0,0.0,0.0,0.0,0.0,0.0
497,994,-0.704834,-0.20043945,0.74365234,987.4962,972.5649,4.0916033,0.08227539,-0.234375,0.9616699,999.75574,997.4809,994.87024,0.0,0.0,0.0,0.0,0.0,0.0,0.0,0.0,0.0,0.0,0.0,0.0
498,996,-0.6804199,-0.1538086,0.8078613,987.5725,972.6107,4.1984735,0.048339844,-0.23022461,0.982666,999.75574,997.52673,994.9313,0.0,0.0,0.0,0.0,0.0,0.0,0.0,0.0,0.0,0.0,0.0,0.0
499,998,-0.66186523,-0.15576172,0.763916,987.4504,972.5649,4.2442746,0.09399414,-0.26391602,1.005127,999.78625,997.52673,994.916,0.0,0.0,0.0,0.0,0.0,0.0,0.0,0.0,0.0,0.0,0.0,0.0
500,1000,-0.66430664,-0.13378906,0.8051758,987.38934,972.44275,4.1984735,0.09741211,-0.22021484,0.97216797,999.8931,997.5115,994.8397,0.0,0.0,0.0,0.0,0.0,0.0,0.0,0.0,0.0,0.0,0.0,0.0
501,1002,-0.70166016,-0.09057617,0.7470703,987.3435,972.41223,4.1679387,0.07055664,-0.21655273,0.9797363,999.93896,997.542,994.80914,0.0,0.0,0.0,0.0,0.0,0.0,0.0,0.0,0.0,0.0,0.0,0.0
502,1004,-0.6730957,-0.12646484,0.7553711,987.313,972.41223,4.10687,0.12426758,-0.20166016,0.9777832,1000.0305,997.52673,994.7176,0.0,0.0,0.0,0.0,0.0,0.0,0.0,0.0,0.0,0.0,0.0,0.0
503,1006,-0.67944336,-0.096191406,0.8227539,987.35876,972.397,4.10687,0.11767578,-0.21679688,0.9614258,1000.0305,997.5115,994.73285,0.0,0.0,0.0,0.0,0.0,0.0,0.0,0.0,0.0,0.0,0.0,0.0
504,1008,-0.6796875,-0.13598633,0.78222656,987.3435,972.44275,4.2137403,0.11767578,-0.2644043,0.9824219,999.9695,997.55725,994.8244,0.0,0.0,0.0,0.0,0.0,0.0,0.0,0.0,0.0,0.0,0.0,0.0
505,1010,-0.6867676,-0.1730957,0.7414551,987.313,972.397,4.2290077,0.08325195,-0.22363281,0.93603516,1000.0,997.542,994.90076,0.0,0.0,0.0,0.0,0.0,0.0,0.0,0.0,0.0,0.0,0.0,0.0
506,1012,-0.6791992,-0.11230469,0.7597656,987.26715,972.24426,4.183206,0.03515625,-0.23779297,0.9169922,999.9695,997.5725,994.8244,0.0,0.0,0.0,0.0,0.0,0.0,0.0,0.0,0.0,0.0,0.0,0.0
507,1014,-0.6882324,-0.11376953,0.78271484,987.374,972.16797,4.2290077,0.050048828,-0.23657227,0.9572754,1000.01526,997.603,994.7481,0.0,0.0,0.0,0.0,0.0,0.0,0.0,0.0,0.0,0.0,0.0,0.0
508,1016,-0.6801758,-0.14111328,0.8129883,987.38934,972.27484,4.183206,0.072265625,-0.25170898,0.9394531,1000.07635,997.603,994.7786,0.0,0.0,0.0,0.0,0.0,0.0,0.0,0.0,0.0,0.0,0.0,0.0
509,1018,-0.6870117,-0.15600586,0.765625,987.35876,972.44275,4.1984735,0.14160156,-0.2265625,1.0092773,1000.0458,997.5725,994.73285,0.0,0.0,0.0,0.0,0.0,0.0,0.0,0.0,0.0,0.0,0.0,0.0
510,1020,-0.6706543,-0.19238281,0.75756836,987.313,972.397,4.183206,0.091796875,-0.22998047,0.9645996,999.98474,997.52673,994.5954,0.0,0.0,0.0,0.0,0.0,0.0,0.0,0.0,0.0,0.0,0.0,0.0
511,1022,-0.6850586,-0.13842773,0.76831055,987.35876,972.2901,4.1679387,0.10498047,-0.2133789,0.97802734,999.9695,997.58777,994.5496,0.0,0.0,0.0,0.0,0.0,0.0,0.0,0.0,0.0,0.0,0.0,0.0
512,1024,-0.67407227,-0.15063477,0.76171875,987.32825,972.2901,4.1679387,0.05908203,-0.20092773,0.9638672,1000.0305,997.6641,994.58014,0.0,0.0,0.0,0.0,0.0,0.0,0.0,0.0,0.0,0.0,0.0,0.0
513,1026,-0.65283203,-0.18725586,0.76464844,987.2061,972.27484,4.183206,0.041748047,-0.22021484,0.9772949,1000.0305,997.6641,994.64124,0.0,0.0,0.0,0.0,0.0,0.0,0.0,0.0,0.0,0.0,0.0,0.0
514,1028,-0.6948242,-0.12988281,0.7290039,987.23663,972.3359,4.1679387,0.09423828,-0.19580078,0.9729004,1000.0,997.603,994.6565,0.0,0.0,0.0,0.0,0.0,0.0,0.0,0.0,0.0,0.0,0.0,0.0
515,1030,-0.64624023,-0.13916016,0.7727051,987.4046,972.30536,4.1221375,0.06518555,-0.22485352,0.9560547,999.8931,997.55725,994.626,0.0,0.0,0.0,0.0,0.0,0.0,0.0,0.0,0.0,0.0,0.0,0.0
516,1032,-0.67578125,-0.15258789,0.7824707,987.4504,972.3664,4.0916033,0.060546875,-0.24951172,0.9873047,999.9542,997.61835,994.50385,0.0,0.0,0.0,0.0,0.0,0.0,0.0,0.0,0.0,0.0,0.0,0.0
517,1034,-0.6611328,-0.1586914,0.78466797,987.41986,972.47327,4.183206,0.092285156,-0.20385742,0.94677734,1000.0611,997.6641,994.41223,0.0,0.0,0.0,0.0,0.0,0.0,0.0,0.0,0.0,0.0,0.0,0.0
518,1036,-0.66381836,-0.09350586,0.78808594,987.4351,972.38165,4.2442746,0.091796875,-0.24365234,0.95043945,1000.0,997.61835,994.5191,0.0,0.0,0.0,0.0,0.0,0.0,0.0,0.0,0.0,0.0,0.0,0.0
519,1038,-0.66186523,-0.07104492,0.7421875,987.5115,972.30536,4.183206,0.09643555,-0.21850586,0.9580078,999.93896,997.52673,994.5496,0.0,0.0,0.0,0.0,0.0,0.0,0.0,0.0,0.0,0.0,0.0,0.0
520,1040,-0.65625,-0.11987305,0.7663574,987.4809,972.397,4.152672,0.12451172,-0.25195312,0.95532227,1000.01526,997.5115,994.5191,0.0,0.0,0.0,0.0,0.0,0.0,0.0,0.0,0.0,0.0,0.0,0.0
521,1042,-0.6323242,-0.11206055,0.7668457,987.313,972.41223,4.1221375,0.111083984,-0.22509766,0.96899414,1000.0,997.5115,994.53436,0.0,0.0,0.0,0.0,0.0,0.0,0.0,0.0,0.0,0.0,0.0,0.0
522,1044,-0.6513672,-0.13867188,0.7714844,987.313,972.50385,4.2290077,0.083984375,-0.21020508,0.97216797,999.8321,997.4809,994.67175,0.0,0.0,0.0,0.0,0.0,0.0,0.0,0.0,0.0,0.0,0.0,0.0
523,1046,-0.6750488,-0.1340332,0.7402344,987.35876,972.458,4.183206,0.12475586,-0.19506836,0.951416,999.7099,997.41986,994.73285,0.0,0.0,0.0,0.0,0.0,0.0,0.0,0.0,0.0,0.0,0.0,0.0
524,1048,-0.6945801,-0.15185547,0.7832031,987.4046,972.35114,4.1374044,0.0859375,-0.24926758,0.9724121,999.771,997.4809,994.80914,0.0,0.0,0.0,0.0,0.0,0.0,0.0,0.0,0.0,0.0,0.0,0.0
525,1050,-0.65625,-0.12988281,0.75927734,987.35876,972.44275,4.183206,0.08325195,-0.22460938,0.9724121,999.8321,997.55725,994.7023,0.0,0.0,0.0,0.0,0.0,0.0,0.0,0.0,0.0,0.0,0.0,0.0
526,1052,-0.6977539,-0.14404297,0.7619629,987.32825,972.5496,4.2442746,0.13232422,-0.20507812,0.97631836,999.7405,997.46564,994.67175,0.0,0.0,0.0,0.0,0.0,0.0,0.0,0.0,0.0,0.0,0.0,0.0
527,1054,-0.6899414,-0.13720703,0.69189453,987.4351,972.53436,4.3053436,0.07739258,-0.23339844,0.967041,999.6641,997.374,994.687,0.0,0.0,0.0,0.0,0.0,0.0,0.0,0.0,0.0,0.0,0.0,0.0
528,1056,-0.63916016,-0.10473633,0.7841797,987.4504,972.5496,4.3816795,0.08666992,-0.18945312,1.0200195,999.58777,997.41986,994.7786,0.0,0.0,0.0,0.0,0.0,0.0,0.0,0.0,0.0,0.0,0.0,0.0
529,1058,-0.6225586,-0.09863281,0.8129883,987.4351,972.5191,4.4274807,0.11767578,-0.2319336,0.9904785,999.6641,997.4351,994.8855,0.0,0.0,0.0,0.0,0.0,0.0,0.0,0.0,0.0,0.0,0.0,0.0
530,1060,-0.6530762,-0.08496094,0.76049805,987.374,972.53436,4.3969464,0.13110352,-0.17773438,0.9526367,999.64886,997.3435,994.8397,0.0,0.0,0.0,0.0,0.0,0.0,0.0,0.0,0.0,0.0,0.0,0.0
531,1062,-0.61987305,-0.13598633,0.73999023,987.41986,972.50385,4.4732823,0.08666992,-0.1928711,0.9667969,999.5115,997.2519,994.9466,0.0,0.0,0.0,0.0,0.0,0.0,0.0,0.0,0.0,0.0,0.0,0.0
532,1064,-0.6621094,-0.10546875,0.77612305,987.52673,972.47327,4.442748,0.08886719,-0.20288086,0.98291016,999.3435,997.1756,995.084,0.0,0.0,0.0,0.0,0.0,0.0,0.0,0.0,0.0,0.0,0.0,0.0
533,1066,-0.6555176,-0.107177734,0.8000488,987.52673,972.4885,4.4274807,0.11816406,-0.24365234,0.9733887,999.3435,997.2519,995.19086,0.0,0.0,0.0,0.0,0.0,0.0,0.0,0.0,0.0,0.0,0.0,0.0
534,1068,-0.66845703,-0.18066406,0.7463379,987.46564,972.50385,4.366412,0.08325195,-0.18066406,0.95092773,999.32825,997.2519,995.2214,0.0,0.0,0.0,0.0,0.0,0.0,0.0,0.0,0.0,0.0,0.0,0.0
535,1070,-0.6843262,-0.15551758,0.7897949,987.4504,972.44275,4.3969464,0.08862305,-0.20922852,0.95947266,999.26715,997.1603,995.145,0.0,0.0,0.0,0.0,0.0,0.0,0.0,0.0,0.0,0.0,0.0,0.0
536,1072,-0.63378906,-0.16210938,0.80908203,987.4809,972.44275,4.4274807,0.1081543,-0.2019043,0.99072266,999.2977,997.12976,995.0229,0.0,0.0,0.0,0.0,0.0,0.0,0.0,0.0,0.0,0.0,0.0,0.0
537,1074,-0.66967773,-0.16186523,0.8046875,987.32825,972.397,4.5343513,0.10644531,-0.20776367,0.99438477,999.46564,997.12976,995.084,0.0,0.0,0.0,0.0,0.0,0.0,0.0,0.0,0.0,0.0,0.0,0.0
538,1076,-0.6730957,-0.13647461,0.79345703,987.2519,972.3664,4.6564884,0.106933594,-0.20532227,0.9975586,999.542,997.145,995.09924,0.0,0.0,0.0,0.0,0.0,0.0,0.0,0.0,0.0,0.0,0.0,0.0
539,1078,-0.66137695,-0.16894531,0.79467773,987.23663,972.397,4.6564884,0.10864258,-0.26416016,0.95874023,999.52673,997.1145,995.0076,0.0,0.0,0.0,0.0,0.0,0.0,0.0,0.0,0.0,0.0,0.0,0.0
540,1080,-0.626709,-0.10449219,0.7741699,987.2825,972.38165,4.5343513,0.11621094,-0.23510742,0.9741211,999.603,997.0687,994.9771,0.0,0.0,0.0,0.0,0.0,0.0,0.0,0.0,0.0,0.0,0.0,0.0
541,1082,-0.671875,-0.12402344,0.78637695,987.313,972.3206,4.5496182,0.09375,-0.25170898,0.96606445,999.64886,997.0076,994.9466,0.0,0.0,0.0,0.0,0.0,0.0,0.0,0.0,0.0,0.0,0.0,0.0
542,1084,-0.6550293,-0.1706543,0.7421875,987.2061,972.3359,4.5496182,0.110839844,-0.22143555,0.9375,999.542,997.0229,994.9466,0.0,0.0,0.0,0.0,0.0,0.0,0.0,0.0,0.0,0.0,0.0,0.0
543,1086,-0.6894531,-0.14233398,0.7861328,987.145,972.41223,4.4274807,0.1027832,-0.21386719,0.97314453,999.46564,997.0076,994.96185,0.0,0.0,0.0,0.0,0.0,0.0,0.0,0.0,0.0,0.0,0.0,0.0
544,1088,-0.65844727,-0.15063477,0.79833984,987.2061,972.27484,4.335878,0.07739258,-0.20947266,0.9836426,999.46564,996.9313,995.05347,0.0,0.0,0.0,0.0,0.0,0.0,0.0,0.0,0.0,0.0,0.0,0.0
545,1090,-0.70092773,-0.13598633,0.7976074,987.1603,972.229,4.2900763,0.09741211,-0.25878906,1.0036621,999.46564,996.96185,995.05347,0.0,0.0,0.0,0.0,0.0,0.0,0.0,0.0,0.0,0.0,0.0,0.0
546,1092,-0.6989746,-0.08276367,0.78686523,987.084,972.3206,4.1679387,0.11791992,-0.21850586,0.9836426,999.46564,997.05347,995.0687,0.0,0.0,0.0,0.0,0.0,0.0,0.0,0.0,0.0,0.0,0.0,0.0
547,1094,-0.6958008,-0.08666992,0.78881836,987.0687,972.3664,4.152672,0.075927734,-0.17407227,0.96533203,999.52673,997.084,994.9771,0.0,0.0,0.0,0.0,0.0,0.0,0.0,0.0,0.0,0.0,0.0,0.0
548,1096,-0.68481445,-0.12573242,0.78027344,987.12976,972.30536,4.1221375,0.114990234,-0.22924805,0.94433594,999.58777,997.084,994.8244,0.0,0.0,0.0,0.0,0.0,0.0,0.0,0.0,0.0,0.0,0.0,0.0
549,1098,-0.6640625,-0.11621094,0.77319336,987.084,972.15265,4.1679387,0.10571289,-0.2290039,0.97265625,999.58777,997.09924,994.90076,0.0,0.0,0.0,0.0,0.0,0.0,0.0,0.0,0.0,0.0,0.0,0.0
550,1100,-0.6472168,-0.14501953,0.7558594,986.96185,972.1832,4.2442746,0.080322266,-0.17285156,0.9499512,999.58777,997.2214,994.9466,0.0,0.0,0.0,0.0,0.0,0.0,0.0,0.0,0.0,0.0,0.0,0.0
551,1102,-0.71362305,-0.14672852,0.74121094,986.916,972.16797,4.3206105,0.09057617,-0.21313477,0.96606445,999.6336,997.2977,994.9924,0.0,0.0,0.0,0.0,0.0,0.0,0.0,0.0,0.0,0.0,0.0,0.0
552,1104,-0.6374512,-0.14135742,0.76953125,986.8855,972.0611,4.3816795,0.07910156,-0.19482422,1.0200195,999.603,997.3435,994.916,0.0,0.0,0.0,0.0,0.0,0.0,0.0,0.0,0.0,0.0,0.0,0.0
553,1106,-0.671875,-0.19189453,0.79956055,986.8855,972.0611,4.412214,0.08886719,-0.23339844,0.986084,999.52673,997.3435,994.8397,0.0,0.0,0.0,0.0,0.0,0.0,0.0,0.0,0.0,0.0,0.0,0.0
554,1108,-0.64501953,-0.123046875,0.7644043,986.96185,972.0305,4.442748,0.100097656,-0.21313477,0.96069336,999.4962,997.374,994.8397,0.0,0.0,0.0,0.0,0.0,0.0,0.0,0.0,0.0,0.0,0.0,0.0
555,1110,-0.6557617,-0.15722656,0.79833984,986.9924,972.0916,4.4732823,0.07739258,-0.21826172,0.95947266,999.5115,997.35876,994.7786,0.0,0.0,0.0,0.0,0.0,0.0,0.0,0.0,0.0,0.0,0.0,0.0
556,1112,-0.6633301,-0.14355469,0.7775879,987.0076,972.07635,4.5496182,0.064941406,-0.23291016,0.9902344,999.4504,997.2977,994.6565,0.0,0.0,0.0,0.0,0.0,0.0,0.0,0.0,0.0,0.0,0.0,0.0
557,1114,-0.670166,-0.13549805,0.7919922,987.0687,971.9542,4.5648856,0.118652344,-0.19042969,0.9406738,999.4962,997.2977,994.6565,0.0,0.0,0.0,0.0,0.0,0.0,0.0,0.0,0.0,0.0,0.0,0.0
558,1116,-0.71850586,-0.18164062,0.78930664,987.0229,971.98474,4.5343513,0.10668945,-0.22558594,0.939209,999.52673,997.35876,994.7481,0.0,0.0,0.0,0.0,0.0,0.0,0.0,0.0,0.0,0.0,0.0,0.0
559,1118,-0.6706543,-0.123046875,0.8249512,986.9924,971.9542,4.4885497,0.09667969,-0.22558594,0.98461914,999.55725,997.374,994.7176,0.0,0.0,0.0,0.0,0.0,0.0,0.0,0.0,0.0,0.0,0.0,0.0
560,1120,-0.67993164,-0.14013672,0.782959,987.084,971.93896,4.5343513,0.11767578,-0.23510742,0.91308594,999.55725,997.4046,994.7023,0.0,0.0,0.0,0.0,0.0,0.0,0.0,0.0,0.0,0.0,0.0,0.0
561,1122,-0.6640625,-0.10522461,0.7739258,987.1145,971.8321,4.5648856,0.07348633,-0.2841797,0.96435547,999.55725,997.35876,994.47327,0.0,0.0,0.0,0.0,0.0,0.0,0.0,0.0,0.0,0.0,0.0,0.0
562,1124,-0.6821289,-0.16064453,0.8166504,987.1145,971.9084,4.5038166,0.10107422,-0.23925781,0.97924805,999.58777,997.374,994.4885,0.0,0.0,0.0,0.0,0.0,0.0,0.0,0.0,0.0,0.0,0.0,0.0
563,1126,-0.65234375,-0.10253906,0.7590332,987.084,972.0305,4.5038166,0.0847168,-0.2697754,0.9326172,999.64886,997.5115,994.58014,0.0,0.0,0.0,0.0,0.0,0.0,0.0,0.0,0.0,0.0,0.0,0.0
564,1128,-0.64624023,-0.13989258,0.7277832,987.084,971.98474,4.625954,0.076660156,-0.19604492,0.9753418,999.64886,997.52673,994.5954,0.0,0.0,0.0,0.0,0.0,0.0,0.0,0.0,0.0,0.0,0.0,0.0
565,1130,-0.6711426,-0.15039062,0.7585449,987.2061,971.9695,4.5496182,0.09765625,-0.22387695,0.97509766,999.6336,997.4809,994.5649,0.0,0.0,0.0,0.0,0.0,0.0,0.0,0.0,0.0,0.0,0.0,0.0
566,1132,-0.6682129,-0.078125,0.7717285,987.145,972.12213,4.519084,0.07910156,-0.20776367,0.94799805,999.5115,997.46564,994.64124,0.0,0.0,0.0,0.0,0.0,0.0,0.0,0.0,0.0,0.0,0.0,0.0
567,1134,-0.68896484,-0.16308594,0.7849121,987.0687,972.21375,4.4580154,0.061035156,-0.21850586,0.98999023,999.52673,997.41986,994.687,0.0,0.0,0.0,0.0,0.0,0.0,0.0,0.0,0.0,0.0,0.0,0.0
568,1136,-0.671875,-0.12719727,0.76708984,987.19086,972.1985,4.412214,0.06665039,-0.23388672,0.95043945,999.5115,997.38934,994.73285,0.0,0.0,0.0,0.0,0.0,0.0,0.0,0.0,0.0,0.0,0.0,0.0
569,1138,-0.6833496,-0.119628906,0.7451172,987.19086,972.2595,4.4885497,0.103515625,-0.21362305,0.99121094,999.4504,997.26715,994.7023,0.0,0.0,0.0,0.0,0.0,0.0,0.0,0.0,0.0,0.0,0.0,0.0
570,1140,-0.6611328,-0.14697266,0.767334,987.23663,972.30536,4.4885497,0.049804688,-0.2536621,0.9938965,999.4504,997.1603,994.7023,0.0,0.0,0.0,0.0,0.0,0.0,0.0,0.0,0.0,0.0,0.0,0.0
571,1142,-0.7038574,-0.13012695,0.7878418,987.12976,972.3359,4.412214,0.06518555,-0.22753906,0.96484375,999.374,997.1756,994.80914,0.0,0.0,0.0,0.0,0.0,0.0,0.0,0.0,0.0,0.0,0.0,0.0
572,1144,-0.63549805,-0.118652344,0.76904297,986.9771,972.27484,4.3206105,0.083984375,-0.23339844,0.9638672,999.2825,997.145,994.8397,0.0,0.0,0.0,0.0,0.0,0.0,0.0,0.0,0.0,0.0,0.0,0.0
573,1146,-0.63549805,-0.118652344,0.76904297,986.9771,972.27484,4.3206105,0.083740234,-0.18041992,0.9343262,999.32825,997.12976,994.7939,0.0,0.0,0.0,0.0,0.0,0.0,0.0,0.0,0.0,0.0,0.0,0.0
574,1148,-0.6357422,-0.12402344,0.7578125,987.19086,972.24426,4.3969464,0.12841797,-0.22387695,1.0151367,999.32825,997.12976,994.8397,0.0,0.0,0.0,0.0,0.0,0.0,0.0,0.0,0.0,0.0,0.0,0.0
575,1150,-0.69140625,-0.103759766,0.8249512,987.0687,972.41223,4.335878,0.1184082,-0.21411133,1.0041504,999.2977,997.0076,994.90076,0.0,0.0,0.0,0.0,0.0,0.0,0.0,0.0,0.0,0.0,0.0,0.0
576,1152,-0.6411133,-0.15429688,0.7519531,987.0076,972.44275,4.3206105,0.12792969,-0.203125,0.95874023,999.3435,997.05347,994.8244,0.0,0.0,0.0,0.0,0.0,0.0,0.0,0.0,0.0,0.0,0.0,0.0
577,1154,-0.6838379,-0.12084961,0.767334,987.0687,972.35114,4.2900763,0.099121094,-0.24975586,0.96972656,999.2825,997.0229,994.76337,0.0,0.0,0.0,0.0,0.0,0.0,0.0,0.0,0.0,0.0,0.0,0.0
578,1156,-0.68481445,-0.1303711,0.7661133,987.09924,972.2901,4.3969464,0.09716797,-0.26123047,0.9147949,999.26715,996.96185,994.8397,0.0,0.0,0.0,0.0,0.0,0.0,0.0,0.0,0.0,0.0,0.0,0.0
579,1158,-0.63500977,-0.11743164,0.80444336,987.12976,972.2595,4.335878,0.03564453,-0.17407227,0.9645996,999.2825,996.9924,994.8244,0.0,0.0,0.0,0.0,0.0,0.0,0.0,0.0,0.0,0.0,0.0,0.0
580,1160,-0.66259766,-0.09887695,0.81884766,987.1145,972.2595,4.2748094,0.12231445,-0.22265625,0.9699707,999.2214,996.9771,994.916,0.0,0.0,0.0,0.0,0.0,0.0,0.0,0.0,0.0,0.0,0.0,0.0
581,1162,-0.68310547,-0.099121094,0.81640625,987.1603,972.21375,4.1984735,0.118652344,-0.23242188,1.0080566,999.12976,996.9771,994.9924,0.0,0.0,0.0,0.0,0.0,0.0,0.0,0.0,0.0,0.0,0.0,0.0
582,1164,-0.6706543,-0.16137695,0.74658203,987.2519,972.1985,4.2137403,0.08935547,-0.25634766,0.9667969,999.03815,996.96185,995.0229,0.0,0.0,0.0,0.0,0.0,0.0,0.0,0.0,0.0,0.0,0.0,0.0
583,1166,-0.62719727,-0.13696289,0.76416016,987.2214,972.24426,4.2900763,0.059326172,-0.23901367,0.95825195,999.0687,996.96185,995.0076,0.0,0.0,0.0,0.0,0.0,0.0,0.0,0.0,0.0,0.0,0.0,0.0
584,1168,-0.68725586,-0.13671875,0.7561035,987.1603,972.2901,4.259542,0.08178711,-0.20166016,0.9711914,999.03815,996.9466,995.1145,0.0,0.0,0.0,0.0,0.0,0.0,0.0,0.0,0.0,0.0,0.0,0.0
585,1170,-0.70947266,-0.16308594,0.7910156,987.2214,972.3359,4.2442746,0.07910156,-0.22851562,0.99902344,999.084,996.9313,995.0687,0.0,0.0,0.0,0.0,0.0,0.0,0.0,0.0,0.0,0.0,0.0,0.0
586,1172,-0.6767578,-0.11352539,0.7792969,987.2519,972.24426,4.1984735,0.103759766,-0.20385742,0.96484375,999.05347,996.96185,995.09924,0.0,0.0,0.0,0.0,0.0,0.0,0.0,0.0,0.0,0.0,0.0,0.0
587,1174,-0.68408203,-0.13916016,0.81469727,987.12976,972.229,4.2137403,0.09667969,-0.20214844,0.96850586,999.09924,996.9771,995.084,0.0,0.0,0.0,0.0,0.0,0.0,0.0,0.0,0.0,0.0,0.0,0.0
588,1176,-0.6323242,-0.13720703,0.717041,987.05347,972.35114,4.335878,0.12451172,-0.21289062,0.9538574,999.2214,997.03815,995.0229,0.0,0.0,0.0,0.0,0.0,0.0,0.0,0.0,0.0,0.0,0.0,0.0
589,1178,-0.717041,-0.1171875,0.7636719,987.0229,972.47327,4.3511453,0.09326172,-0.19921875,0.9777832,999.26715,997.05347,995.03815,0.0,0.0,0.0,0.0,0.0,0.0,0.0,0.0,0.0,0.0,0.0,0.0
590,1180,-0.6855469,-0.16748047,0.7565918,987.0076,972.4275,4.3969464,0.11352539,-0.19091797,0.9519043,999.2519,997.09924,995.03815,0.0,0.0,0.0,0.0,0.0,0.0,0.0,0.0,0.0,0.0,0.0,0.0
591,1182,-0.66796875,-0.13305664,0.7597656,986.9771,972.24426,4.3969464,0.06201172,-0.2253418,0.96777344,999.32825,997.1145,994.9924,0.0,0.0,0.0,0.0,0.0,0.0,0.0,0.0,0.0,0.0,0.0,0.0
592,1184,-0.6862793,-0.12036133,0.7963867,986.9924,972.229,4.335878,0.12792969,-0.26904297,0.96875,999.374,997.09924,995.0229,0.0,0.0,0.0,0.0,0.0,0.0,0.0,0.0,0.0,0.0,0.0,0.0
593,1186,-0.65771484,-0.18286133,0.7319336,987.0076,972.21375,4.3053436,0.052978516,-0.23413086,1.0146484,999.4504,997.12976,995.09924,0.0,0.0,0.0,0.0,0.0,0.0,0.0,0.0,0.0,0.0,0.0,0.0
594,1188,-0.6520996,-0.15307617,0.8005371,987.09924,972.0611,4.3053436,0.06958008,-0.20703125,0.94873047,999.4504,997.1756,995.03815,0.0,0.0,0.0,0.0,0.0,0.0,0.0,0.0,0.0,0.0,0.0,0.0
595,1190,-0.67626953,-0.11791992,0.7717285,987.1756,972.12213,4.3206105,0.07788086,-0.2553711,0.97265625,999.4809,997.2061,995.05347,0.0,0.0,0.0,0.0,0.0,0.0,0.0,0.0,0.0,0.0,0.0,0.0
596,1192,-0.6723633,-0.12817383,0.76342773,987.084,972.229,4.3816795,0.09838867,-0.25268555,0.9404297,999.603,997.19086,995.05347,0.0,0.0,0.0,0.0,0.0,0.0,0.0,0.0,0.0,0.0,0.0,0.0
597,1194,-0.6826172,-0.15039062,0.7717285,986.9924,972.27484,4.412214,0.03466797,-0.21264648,0.9321289,999.6641,997.145,995.05347,0.0,0.0,0.0,0.0,0.0,0.0,0.0,0.0,0.0,0.0,0.0,0.0
598,1196,-0.6489258,-0.13964844,0.78759766,987.0229,972.16797,4.442748,0.12426758,-0.22338867,0.99316406,999.7099,997.145,995.12976,0.0,0.0,0.0,0.0,0.0,0.0,0.0,0.0,0.0,0.0,0.0,0.0
599,1198,-0.6196289,-0.096191406,0.76049805,987.0076,972.01526,4.412214,0.13964844,-0.20507812,0.9284668,999.6794,997.1145,995.09924,0.0,0.0,0.0,0.0,0.0,0.0,0.0,0.0,0.0,0.0,0.0,0.0
600,1200,-0.65283203,-0.14501953,0.74609375,987.0229,972.0458,4.412214,0.08691406,-0.21899414,0.9855957,999.7099,997.1603,995.0687,0.0,0.0,0.0,0.0,0.0,0.0,0.0,0.0,0.0,0.0,0.0,0.0
601,1202,-0.68969727,-0.18261719,0.75927734,987.05347,972.16797,4.442748,0.119384766,-0.19848633,0.9790039,999.75574,997.313,995.05347,0.0,0.0,0.0,0.0,0.0,0.0,0.0,0.0,0.0,0.0,0.0,0.0
602,1204,-0.6633301,-0.13061523,0.7578125,987.145,972.16797,4.4732823,0.1171875,-0.20410156,0.94140625,999.7099,997.38934,994.9924,0.0,0.0,0.0,0.0,0.0,0.0,0.0,0.0,0.0,0.0,0.0,0.0
603,1206,-0.6713867,-0.1381836,0.7836914,987.1756,972.1374,4.3816795,0.107910156,-0.20166016,0.9260254,999.75574,997.3435,995.0229,0.0,0.0,0.0,0.0,0.0,0.0,0.0,0.0,0.0,0.0,0.0,0.0
604,1208,-0.6738281,-0.16455078,0.7878418,987.1603,972.1832,4.366412,0.06982422,-0.24365234,0.954834,999.8015,997.2977,994.916,0.0,0.0,0.0,0.0,0.0,0.0,0.0,0.0,0.0,0.0,0.0,0.0
605,1210,-0.6398926,-0.13012695,0.73535156,987.1756,972.24426,4.3511453,0.15478516,-0.25219727,0.96655273,999.8015,997.2825,994.916,0.0,0.0,0.0,0.0,0.0,0.0,0.0,0.0,0.0,0.0,0.0,0.0
606,1212,-0.69750977,-0.18579102,0.7832031,987.2214,972.24426,4.3969464,0.14404297,-0.19946289,0.97314453,999.8015,997.2519,994.855,0.0,0.0,0.0,0.0,0.0,0.0,0.0,0.0,0.0,0.0,0.0,0.0
607,1214,-0.6557617,-0.10644531,0.76586914,987.374,972.16797,4.442748,0.13500977,-0.19506836,0.9394531,999.75574,997.23663,994.855,0.0,0.0,0.0,0.0,0.0,0.0,0.0,0.0,0.0,0.0,0.0,0.0
608,1216,-0.6862793,-0.18286133,0.75683594,987.35876,972.27484,4.4732823,0.044921875,-0.24731445,0.94555664,999.7099,997.23663,994.96185,0.0,0.0,0.0,0.0,0.0,0.0,0.0,0.0,0.0,0.0,0.0,0.0
609,1218,-0.6586914,-0.12841797,0.7734375,987.32825,972.38165,4.4885497,0.08520508,-0.26489258,0.96972656,999.7405,997.2061,995.0076,0.0,0.0,0.0,0.0,0.0,0.0,0.0,0.0,0.0,0.0,0.0,0.0
610,1220,-0.657959,-0.13549805,0.71118164,987.374,972.3359,4.4580154,0.07348633,-0.18701172,0.9758301,999.771,997.23663,995.0229,0.0,0.0,0.0,0.0,0.0,0.0,0.0,0.0,0.0,0.0,0.0,0.0
611,1222,-0.6569824,-0.16796875,0.7241211,987.374,972.3206,4.4580154,0.11694336,-0.2175293,0.9716797,999.69464,997.2061,994.9771,0.0,0.0,0.0,0.0,0.0,0.0,0.0,0.0,0.0,0.0,0.0,0.0
612,1224,-0.63916016,-0.099853516,0.78466797,987.41986,972.35114,4.4580154,0.043701172,-0.22387695,0.9802246,999.61835,997.1145,994.96185,0.0,0.0,0.0,0.0,0.0,0.0,0.0,0.0,0.0,0.0,0.0,0.0
613,1226,-0.6826172,-0.13574219,0.7895508,987.4351,972.44275,4.4885497,0.12011719,-0.24975586,0.96899414,999.69464,997.1603,994.916,0.0,0.0,0.0,0.0,0.0,0.0,0.0,0.0,0.0,0.0,0.0,0.0
614,1228,-0.65527344,-0.11035156,0.7817383,987.41986,972.626,4.4580154,0.14379883,-0.19677734,0.96972656,999.7252,997.1145,994.80914,0.0,0.0,0.0,0.0,0.0,0.0,0.0,0.0,0.0,0.0,0.0,0.0
615,1230,-0.6911621,-0.110839844,0.7558594,987.41986,972.626,4.412214,0.07543945,-0.18920898,0.9719238,999.6641,997.145,994.8244,0.0,0.0,0.0,0.0,0.0,0.0,0.0,0.0,0.0,0.0,0.0,0.0
616,1232,-0.7155762,-0.10229492,0.7644043,987.4351,972.4885,4.4580154,0.12670898,-0.23217773,0.96728516,999.7099,997.145,994.855,0.0,0.0,0.0,0.0,0.0,0.0,0.0,0.0,0.0,0.0,0.0,0.0
617,1234,-0.7055664,-0.115478516,0.6923828,987.313,972.50385,4.4732823,0.09350586,-0.2265625,0.9929199,999.771,997.1756,994.8855,0.0,0.0,0.0,0.0,0.0,0.0,0.0,0.0,0.0,0.0,0.0,0.0
618,1236,-0.66625977,-0.16601562,0.732666,987.3435,972.5496,4.4732823,0.15698242,-0.22363281,0.9562988,999.771,997.1756,994.9313,0.0,0.0,0.0,0.0,0.0,0.0,0.0,0.0,0.0,0.0,0.0,0.0
619,1238,-0.6882324,-0.111572266,0.76293945,987.4504,972.41223,4.442748,0.08129883,-0.22021484,0.9770508,999.8015,997.1145,994.9924,0.0,0.0,0.0,0.0,0.0,0.0,0.0,0.0,0.0,0.0,0.0,0.0
620,1240,-0.63378906,-0.12084961,0.74194336,987.46564,972.3664,4.5038166,0.09106445,-0.22973633,0.9633789,999.87787,997.2977,994.9313,0.0,0.0,0.0,0.0,0.0,0.0,0.0,0.0,0.0,0.0,0.0,0.0
621,1242,-0.7043457,-0.10546875,0.78344727,987.313,972.53436,4.5496182,0.14208984,-0.20507812,0.93652344,999.93896,997.374,994.8855,0.0,0.0,0.0,0.0,0.0,0.0,0.0,0.0,0.0,0.0,0.0,0.0
622,1244,-0.685791,-0.14819336,0.7858887,987.35876,972.5649,4.442748,0.103759766,-0.17016602,0.9921875,999.92365,997.313,994.9771,0.0,0.0,0.0,0.0,0.0,0.0,0.0,0.0,0.0,0.0,0.0,0.0
623,1246,-0.67089844,-0.12402344,0.7792969,987.32825,972.5191,4.4732823,0.11743164,-0.1965332,0.9916992,999.8626,997.2977,995.084,0.0,0.0,0.0,0.0,0.0,0.0,0.0,0.0,0.0,0.0,0.0,0.0
624,1248,-0.6870117,-0.14257812,0.77124023,987.374,972.3206,4.519084,0.10253906,-0.19848633,0.97314453,999.93896,997.374,995.084,0.0,0.0,0.0,0.0,0.0,0.0,0.0,0.0,0.0,0.0,0.0,0.0
625,1250,-0.6635742,-0.13354492,0.7409668,987.374,972.27484,4.519084,0.080078125,-0.21435547,0.9838867,999.92365,997.32825,995.12976,0.0,0.0,0.0,0.0,0.0,0.0,0.0,0.0,0.0,0.0,0.0,0.0
626,1252,-0.70703125,-0.119628906,0.7824707,987.374,972.3206,4.5343513,0.080566406,-0.23901367,0.94018555,999.87787,997.2825,995.2214,0.0,0.0,0.0,0.0,0.0,0.0,0.0,0.0,0.0,0.0,0.0,0.0
627,1254,-0.6933594,-0.12841797,0.7937012,987.4809,972.27484,4.59542,0.123046875,-0.21362305,0.998291,999.8626,997.313,995.2825,0.0,0.0,0.0,0.0,0.0,0.0,0.0,0.0,0.0,0.0,0.0,0.0
628,1256,-0.6699219,-0.12768555,0.7937012,987.4962,972.1374,4.5343513,0.08325195,-0.2397461,0.9782715,999.8931,997.313,995.2061,0.0,0.0,0.0,0.0,0.0,0.0,0.0,0.0,0.0,0.0,0.0,0.0
629,1258,-0.6965332,-0.118896484,0.7570801,987.4046,972.07635,4.4885497,0.0871582,-0.2602539,0.9831543,999.9084,997.32825,995.1756,0.0,0.0,0.0,0.0,0.0,0.0,0.0,0.0,0.0,0.0,0.0,0.0
630,1260,-0.6821289,-0.10839844,0.7590332,987.2519,972.1374,4.519084,0.103515625,-0.20117188,0.9538574,999.78625,997.23663,995.2825,0.0,0.0,0.0,0.0,0.0,0.0,0.0,0.0,0.0,0.0,0.0,0.0
631,1262,-0.67749023,-0.14282227,0.7324219,987.23663,971.98474,4.5343513,0.15478516,-0.2290039,0.97387695,999.7405,997.23663,995.145,0.0,0.0,0.0,0.0,0.0,0.0,0.0,0.0,0.0,0.0,0.0,0.0
632,1264,-0.66796875,-0.17138672,0.7961426,987.23663,971.87787,4.4732823,0.109375,-0.23291016,0.9633789,999.8931,997.32825,995.03815,0.0,0.0,0.0,0.0,0.0,0.0,0.0,0.0,0.0,0.0,0.0,0.0
633,1266,-0.66918945,-0.14038086,0.7546387,987.2061,971.87787,4.3969464,0.10253906,-0.19311523,0.9663086,999.8931,997.38934,995.03815,0.0,0.0,0.0,0.0,0.0,0.0,0.0,0.0,0.0,0.0,0.0,0.0
634,1268,-0.6982422,-0.14331055,0.7963867,987.1756,972.0,4.3206105,0.119384766,-0.18115234,0.96069336,999.8626,997.374,994.9924,0.0,0.0,0.0,0.0,0.0,0.0,0.0,0.0,0.0,0.0,0.0,0.0
635,1270,-0.6743164,-0.18041992,0.71533203,987.2214,972.07635,4.3511453,0.103271484,-0.20629883,0.98461914,999.8321,997.313,994.96185,0.0,0.0,0.0,0.0,0.0,0.0,0.0,0.0,0.0,0.0,0.0,0.0
636,1272,-0.7470703,-0.115234375,0.80737305,987.2214,972.07635,4.3816795,0.13134766,-0.22021484,0.97265625,999.8931,997.313,994.87024,0.0,0.0,0.0,0.0,0.0,0.0,0.0,0.0,0.0,0.0,0.0,0.0
637,1274,-0.6425781,-0.13085938,0.8029785,987.2825,972.0611,4.442748,0.1459961,-0.20654297,0.9875488,999.87787,997.313,994.80914,0.0,0.0,0.0,0.0,0.0,0.0,0.0,0.0,0.0,0.0,0.0,0.0
638,1276,-0.65234375,-0.17016602,0.74902344,987.23663,972.15265,4.3511453,0.10571289,-0.20605469,0.9831543,999.8321,997.2825,994.7176,0.0,0.0,0.0,0.0,0.0,0.0,0.0,0.0,0.0,0.0,0.0,0.0
639,1278,-0.65478516,-0.13623047,0.7890625,987.2519,972.1832,4.2748094,0.11767578,-0.25952148,0.9946289,999.75574,997.2061,994.7481,0.0,0.0,0.0,0.0,0.0,0.0,0.0,0.0,0.0,0.0,0.0,0.0
640,1280,-0.689209,-0.16699219,0.81225586,987.3435,972.1985,4.2900763,0.0925293,-0.24169922,0.95996094,999.7405,997.2977,994.73285,0.0,0.0,0.0,0.0,0.0,0.0,0.0,0.0,0.0,0.0,0.0,0.0
641,1282,-0.64624023,-0.11254883,0.7590332,987.2825,972.27484,4.2290077,0.09667969,-0.24511719,0.9868164,999.8321,997.313,994.7023,0.0,0.0,0.0,0.0,0.0,0.0,0.0,0.0,0.0,0.0,0.0,0.0
642,1284,-0.6455078,-0.15063477,0.82006836,987.2061,972.30536,4.2900763,0.103027344,-0.22167969,0.93066406,999.87787,997.38934,994.5496,0.0,0.0,0.0,0.0,0.0,0.0,0.0,0.0,0.0,0.0,0.0,0.0
643,1286,-0.69628906,-0.12524414,0.75390625,987.23663,972.24426,4.366412,0.10253906,-0.23608398,0.9506836,999.9084,997.35876,994.58014,0.0,0.0,0.0,0.0,0.0,0.0,0.0,0.0,0.0,0.0,0.0,0.0
644,1288,-0.6130371,-0.13647461,0.7753906,987.313,972.1832,4.4885497,0.10424805,-0.23657227,0.96313477,999.98474,997.2977,994.5954,0.0,0.0,0.0,0.0,0.0,0.0,0.0,0.0,0.0,0.0,0.0,0.0
645,1290,-0.6594238,-0.1586914,0.77490234,987.313,972.1374,4.4885497,0.1027832,-0.2368164,0.9592285,1000.0,997.2977,994.626,0.0,0.0,0.0,0.0,0.0,0.0,0.0,0.0,0.0,0.0,0.0,0.0
646,1292,-0.66064453,-0.14794922,0.72143555,987.2061,972.2901,4.5801525,0.11743164,-0.18701172,1.0041504,999.8321,997.35876,994.64124,0.0,0.0,0.0,0.0,0.0,0.0,0.0,0.0,0.0,0.0,0.0,0.0
647,1294,-0.69311523,-0.12451172,0.77001953,987.2061,972.3359,4.5496182,0.04321289,-0.19506836,0.97631836,999.8321,997.4351,994.64124,0.0,0.0,0.0,0.0,0.0,0.0,0.0,0.0,0.0,0.0,0.0,0.0
648,1296,-0.6665039,-0.15576172,0.73339844,987.26715,972.30536,4.5343513,0.045898438,-0.20458984,0.9602051,999.78625,997.4809,994.67175,0.0,0.0,0.0,0.0,0.0,0.0,0.0,0.0,0.0,0.0,0.0,0.0
649,1298,-0.66625977,-0.12719727,0.7915039,987.2825,972.1985,4.5496182,0.05810547,-0.20043945,0.99243164,999.8168,997.55725,994.5954,0.0,0.0,0.0,0.0,0.0,0.0,0.0,0.0,0.0,0.0,0.0,0.0
650,1300,-0.66015625,-0.17504883,0.7766113,987.2214,972.1832,4.671756,0.07421875,-0.19213867,0.9597168,999.8321,997.58777,994.4885,0.0,0.0,0.0,0.0,0.0,0.0,0.0,0.0,0.0,0.0,0.0,0.0
651,1302,-0.6965332,-0.14697266,0.7873535,987.2061,972.1374,4.6870227,0.07446289,-0.2626953,0.97875977,999.8626,997.55725,994.47327,0.0,0.0,0.0,0.0,0.0,0.0,0.0,0.0,0.0,0.0,0.0,0.0
652,1304,-0.6491699,-0.12768555,0.796875,987.19086,971.98474,4.7328243,0.09375,-0.22167969,0.95410156,999.8626,997.4809,994.44275,0.0,0.0,0.0,0.0,0.0,0.0,0.0,0.0,0.0,0.0,0.0,0.0
653,1306,-0.70703125,-0.11987305,0.81933594,987.1756,971.93896,4.70229,0.052734375,-0.23364258,0.99194336,999.8321,997.4504,994.397,0.0,0.0,0.0,0.0,0.0,0.0,0.0,0.0,0.0,0.0,0.0,0.0
654,1308,-0.6870117,-0.14819336,0.7438965,987.2061,971.8321,4.6412215,0.104003906,-0.24267578,0.9645996,1000.01526,997.41986,994.30536,0.0,0.0,0.0,0.0,0.0,0.0,0.0,0.0,0.0,0.0,0.0,0.0
655,1310,-0.6633301,-0.14794922,0.7949219,987.145,971.8321,4.59542,0.09765625,-0.15893555,0.97094727,1000.0458,997.4046,994.2595,0.0,0.0,0.0,0.0,0.0,0.0,0.0,0.0,0.0,0.0,0.0,0.0
656,1312,-0.67993164,-0.15039062,0.81103516,987.145,971.8321,4.6106873,0.10180664,-0.25024414,0.97680664,999.98474,997.41986,994.30536,0.0,0.0,0.0,0.0,0.0,0.0,0.0,0.0,0.0,0.0,0.0,0.0
657,1314,-0.68847656,-0.125,0.7849121,987.2061,971.84735,4.519084,0.08496094,-0.21801758,0.97265625,999.9084,997.2977,994.3664,0.0,0.0,0.0,0.0,0.0,0.0,0.0,0.0,0.0,0.0,0.0,0.0
658,1316,-0.6921387,-0.13305664,0.7602539,987.26715,971.78625,4.4885497,0.095214844,-0.22949219,0.9746094,999.87787,997.313,994.50385,0.0,0.0,0.0,0.0,0.0,0.0,0.0,0.0,0.0,0.0,0.0,0.0
659,1318,-0.65966797,-0.15161133,0.7788086,987.2061,971.84735,4.442748,0.07397461,-0.22973633,0.97216797,999.8321,997.313,994.5496,0.0,0.0,0.0,0.0,0.0,0.0,0.0,0.0,0.0,0.0,0.0,0.0
660,1320,-0.68774414,-0.14355469,0.7595215,987.2519,971.84735,4.3511453,0.052978516,-0.2397461,0.9350586,999.8168,997.2519,994.5649,0.0,0.0,0.0,0.0,0.0,0.0,0.0,0.0,0.0,0.0,0.0,0.0
661,1322,-0.65893555,-0.11010742,0.7805176,987.313,971.75574,4.2137403,0.08544922,-0.265625,0.9567871,999.7099,997.3435,994.47327,0.0,0.0,0.0,0.0,0.0,0.0,0.0,0.0,0.0,0.0,0.0,0.0
662,1324,-0.6452637,-0.14086914,0.7819824,987.2519,971.8168,4.1679387,0.09301758,-0.2109375,0.9753418,999.6794,997.38934,994.44275,0.0,0.0,0.0,0.0,0.0,0.0,0.0,0.0,0.0,0.0,0.0,0.0
663,1326,-0.6789551,-0.1015625,0.7614746,987.2214,971.8626,4.152672,0.11010742,-0.20214844,0.9577637,999.7099,997.35876,994.458,0.0,0.0,0.0,0.0,0.0,0.0,0.0,0.0,0.0,0.0,0.0,0.0
664,1328,-0.6789551,-0.1015625,0.7614746,987.2214,971.8626,4.152672,0.055908203,-0.24121094,0.9421387,999.7405,997.374,994.397,0.0,0.0,0.0,0.0,0.0,0.0,0.0,0.0,0.0,0.0,0.0,0.0
665,1330,-0.657959,-0.11230469,0.7878418,987.23663,971.6641,4.259542,0.12475586,-0.28515625,0.96240234,999.6641,997.374,994.44275,0.0,0.0,0.0,0.0,0.0,0.0,0.0,0.0,0.0,0.0,0.0,0.0
666,1332,-0.6557617,-0.0871582,0.78808594,987.23663,971.75574,4.1984735,0.119384766,-0.25561523,0.96728516,999.5115,997.3435,994.6107,0.0,0.0,0.0,0.0,0.0,0.0,0.0,0.0,0.0,0.0,0.0,0.0
